Dataset wide_40:4(ito)
Dwell Time (s)	0.100000
Number of sweeps	20
Kinetic Energy(eV)	Binding Energy(eV)	Intensity(cps)	Transmission Value
286.690000	1200.000000	3069.000000	1.640891
287.190000	1199.500000	3158.500000	1.640302
287.690000	1199.000000	3186.000000	1.639713
288.190000	1198.500000	3137.500000	1.639124
288.690000	1198.000000	3180.000000	1.638535
289.190000	1197.500000	3208.500000	1.637946
289.690000	1197.000000	3235.000000	1.637357
290.190000	1196.500000	3277.000000	1.636768
290.690000	1196.000000	3218.500000	1.636179
291.190000	1195.500000	3289.000000	1.635590
291.690000	1195.000000	3311.500000	1.635001
292.190000	1194.500000	3304.500000	1.634412
292.690000	1194.000000	3307.000000	1.633822
293.190000	1193.500000	3308.000000	1.633233
293.690000	1193.000000	3472.500000	1.632644
294.190000	1192.500000	3399.000000	1.632055
294.690000	1192.000000	3363.500000	1.631466
295.190000	1191.500000	3451.500000	1.630877
295.690000	1191.000000	3397.000000	1.630288
296.190000	1190.500000	3387.000000	1.629699
296.690000	1190.000000	3289.000000	1.629110
297.190000	1189.500000	3297.500000	1.628521
297.690000	1189.000000	3299.500000	1.627932
298.190000	1188.500000	3290.500000	1.627343
298.690000	1188.000000	3256.000000	1.626754
299.190000	1187.500000	3259.500000	1.626165
299.690000	1187.000000	3271.500000	1.625576
300.190000	1186.500000	3322.500000	1.624987
300.690000	1186.000000	3243.000000	1.624398
301.190000	1185.500000	3223.500000	1.623809
301.690000	1185.000000	3296.000000	1.623219
302.190000	1184.500000	3267.500000	1.622630
302.690000	1184.000000	3282.500000	1.622041
303.190000	1183.500000	3210.000000	1.621452
303.690000	1183.000000	3230.500000	1.620863
304.190000	1182.500000	3181.000000	1.620274
304.690000	1182.000000	3253.500000	1.619685
305.190000	1181.500000	3299.500000	1.619096
305.690000	1181.000000	3258.000000	1.618507
306.190000	1180.500000	3207.000000	1.617918
306.690000	1180.000000	3198.000000	1.617329
307.190000	1179.500000	3235.500000	1.616740
307.690000	1179.000000	3185.000000	1.616151
308.190000	1178.500000	3243.500000	1.615562
308.690000	1178.000000	3260.500000	1.614973
309.190000	1177.500000	3222.500000	1.614384
309.690000	1177.000000	3261.500000	1.613795
310.190000	1176.500000	3260.500000	1.613206
310.690000	1176.000000	3272.500000	1.612616
311.190000	1175.500000	3288.000000	1.612027
311.690000	1175.000000	3269.000000	1.611438
312.190000	1174.500000	3295.500000	1.610849
312.690000	1174.000000	3327.000000	1.610260
313.190000	1173.500000	3360.500000	1.609671
313.690000	1173.000000	3385.500000	1.609082
314.190000	1172.500000	3370.500000	1.608493
314.690000	1172.000000	3325.000000	1.607904
315.190000	1171.500000	3349.000000	1.607315
315.690000	1171.000000	3378.500000	1.606726
316.190000	1170.500000	3327.000000	1.606137
316.690000	1170.000000	3382.500000	1.605548
317.190000	1169.500000	3384.500000	1.604959
317.690000	1169.000000	3412.000000	1.604370
318.190000	1168.500000	3426.000000	1.603781
318.690000	1168.000000	3362.500000	1.603192
319.190000	1167.500000	3394.000000	1.602603
319.690000	1167.000000	3365.000000	1.602013
320.190000	1166.500000	3454.500000	1.601424
320.690000	1166.000000	3456.500000	1.600835
321.190000	1165.500000	3436.000000	1.600246
321.690000	1165.000000	3427.500000	1.599657
322.190000	1164.500000	3460.000000	1.599068
322.690000	1164.000000	3543.500000	1.598479
323.190000	1163.500000	3488.000000	1.597890
323.690000	1163.000000	3508.500000	1.597301
324.190000	1162.500000	3493.000000	1.596712
324.690000	1162.000000	3536.500000	1.596123
325.190000	1161.500000	3585.500000	1.595534
325.690000	1161.000000	3604.000000	1.594945
326.190000	1160.500000	3521.500000	1.594356
326.690000	1160.000000	3587.000000	1.593767
327.190000	1159.500000	3578.500000	1.593178
327.690000	1159.000000	3530.500000	1.592589
328.190000	1158.500000	3567.500000	1.592000
328.690000	1158.000000	3591.500000	1.591888
329.190000	1157.500000	3543.000000	1.591833
329.690000	1157.000000	3611.000000	1.591778
330.190000	1156.500000	3572.000000	1.591724
330.690000	1156.000000	3564.000000	1.591669
331.190000	1155.500000	3636.500000	1.591614
331.690000	1155.000000	3617.000000	1.591559
332.190000	1154.500000	3610.000000	1.591504
332.690000	1154.000000	3584.500000	1.591449
333.190000	1153.500000	3664.500000	1.591394
333.690000	1153.000000	3616.000000	1.591340
334.190000	1152.500000	3663.000000	1.591285
334.690000	1152.000000	3693.500000	1.591230
335.190000	1151.500000	3669.000000	1.591175
335.690000	1151.000000	3621.000000	1.591120
336.190000	1150.500000	3657.500000	1.591065
336.690000	1150.000000	3663.500000	1.591011
337.190000	1149.500000	3647.000000	1.590956
337.690000	1149.000000	3641.000000	1.590901
338.190000	1148.500000	3766.500000	1.590846
338.690000	1148.000000	3691.000000	1.590791
339.190000	1147.500000	3659.000000	1.590736
339.690000	1147.000000	3683.000000	1.590682
340.190000	1146.500000	3727.500000	1.590627
340.690000	1146.000000	3662.500000	1.590572
341.190000	1145.500000	3705.500000	1.590517
341.690000	1145.000000	3694.500000	1.590462
342.190000	1144.500000	3788.000000	1.590407
342.690000	1144.000000	3680.000000	1.590352
343.190000	1143.500000	3661.500000	1.590298
343.690000	1143.000000	3654.000000	1.590243
344.190000	1142.500000	3609.500000	1.590188
344.690000	1142.000000	3589.000000	1.590133
345.190000	1141.500000	3547.000000	1.590078
345.690000	1141.000000	3512.500000	1.590023
346.190000	1140.500000	3564.500000	1.589969
346.690000	1140.000000	3518.000000	1.589914
347.190000	1139.500000	3535.000000	1.589859
347.690000	1139.000000	3530.000000	1.589804
348.190000	1138.500000	3510.000000	1.589749
348.690000	1138.000000	3442.000000	1.589694
349.190000	1137.500000	3456.500000	1.589640
349.690000	1137.000000	3483.000000	1.589585
350.190000	1136.500000	3422.000000	1.589530
350.690000	1136.000000	3399.500000	1.589475
351.190000	1135.500000	3457.500000	1.589420
351.690000	1135.000000	3445.500000	1.589365
352.190000	1134.500000	3360.000000	1.589310
352.690000	1134.000000	3420.000000	1.589256
353.190000	1133.500000	3383.500000	1.589201
353.690000	1133.000000	3364.500000	1.589146
354.190000	1132.500000	3315.000000	1.589091
354.690000	1132.000000	3354.500000	1.589036
355.190000	1131.500000	3338.000000	1.588981
355.690000	1131.000000	3406.500000	1.588927
356.190000	1130.500000	3394.000000	1.588872
356.690000	1130.000000	3297.000000	1.588817
357.190000	1129.500000	3342.500000	1.588762
357.690000	1129.000000	3363.500000	1.588707
358.190000	1128.500000	3366.000000	1.588652
358.690000	1128.000000	3385.000000	1.588598
359.190000	1127.500000	3451.500000	1.588543
359.690000	1127.000000	3367.000000	1.588488
360.190000	1126.500000	3364.500000	1.588433
360.690000	1126.000000	3391.500000	1.588378
361.190000	1125.500000	3362.500000	1.588323
361.690000	1125.000000	3371.500000	1.588268
362.190000	1124.500000	3406.000000	1.588214
362.690000	1124.000000	3380.000000	1.588159
363.190000	1123.500000	3455.500000	1.588104
363.690000	1123.000000	3437.000000	1.588049
364.190000	1122.500000	3445.000000	1.587994
364.690000	1122.000000	3444.000000	1.587939
365.190000	1121.500000	3372.500000	1.587885
365.690000	1121.000000	3480.000000	1.587830
366.190000	1120.500000	3483.000000	1.587775
366.690000	1120.000000	3457.500000	1.587720
367.190000	1119.500000	3433.000000	1.587665
367.690000	1119.000000	3462.000000	1.587610
368.190000	1118.500000	3503.000000	1.587556
368.690000	1118.000000	3558.500000	1.587501
369.190000	1117.500000	3483.000000	1.587446
369.690000	1117.000000	3530.000000	1.587391
370.190000	1116.500000	3554.000000	1.587336
370.690000	1116.000000	3597.000000	1.587281
371.190000	1115.500000	3492.500000	1.587226
371.690000	1115.000000	3526.000000	1.587172
372.190000	1114.500000	3533.500000	1.587117
372.690000	1114.000000	3580.500000	1.587062
373.190000	1113.500000	3601.500000	1.587007
373.690000	1113.000000	3571.000000	1.586952
374.190000	1112.500000	3555.000000	1.586897
374.690000	1112.000000	3628.000000	1.586843
375.190000	1111.500000	3620.000000	1.586788
375.690000	1111.000000	3650.500000	1.586733
376.190000	1110.500000	3664.000000	1.586678
376.690000	1110.000000	3705.000000	1.586623
377.190000	1109.500000	3675.000000	1.586568
377.690000	1109.000000	3754.500000	1.586513
378.190000	1108.500000	3667.500000	1.586459
378.690000	1108.000000	3674.500000	1.586404
379.190000	1107.500000	3727.000000	1.586349
379.690000	1107.000000	3640.000000	1.586294
380.190000	1106.500000	3697.500000	1.586239
380.690000	1106.000000	3804.500000	1.586184
381.190000	1105.500000	3768.500000	1.586130
381.690000	1105.000000	3703.000000	1.586075
382.190000	1104.500000	3701.000000	1.586020
382.690000	1104.000000	3791.500000	1.585965
383.190000	1103.500000	3818.000000	1.585910
383.690000	1103.000000	3768.000000	1.585855
384.190000	1102.500000	3775.500000	1.585801
384.690000	1102.000000	3827.500000	1.585746
385.190000	1101.500000	3831.500000	1.585691
385.690000	1101.000000	3822.000000	1.585636
386.190000	1100.500000	3773.500000	1.585581
386.690000	1100.000000	3732.000000	1.585526
387.190000	1099.500000	3777.000000	1.585471
387.690000	1099.000000	3781.500000	1.585417
388.190000	1098.500000	3778.000000	1.585362
388.690000	1098.000000	3795.000000	1.585307
389.190000	1097.500000	3815.000000	1.585252
389.690000	1097.000000	3798.500000	1.585197
390.190000	1096.500000	3814.500000	1.585142
390.690000	1096.000000	3935.500000	1.585088
391.190000	1095.500000	3871.500000	1.585033
391.690000	1095.000000	3823.500000	1.584978
392.190000	1094.500000	3862.000000	1.584923
392.690000	1094.000000	3862.500000	1.584868
393.190000	1093.500000	3936.000000	1.584813
393.690000	1093.000000	3942.500000	1.584759
394.190000	1092.500000	4036.500000	1.584704
394.690000	1092.000000	4154.000000	1.584649
395.190000	1091.500000	4228.500000	1.584594
395.690000	1091.000000	4312.500000	1.584539
396.190000	1090.500000	4344.500000	1.584484
396.690000	1090.000000	4450.000000	1.584429
397.190000	1089.500000	4651.500000	1.584375
397.690000	1089.000000	4872.000000	1.584320
398.190000	1088.500000	5183.000000	1.584265
398.690000	1088.000000	5429.000000	1.584210
399.190000	1087.500000	5625.000000	1.584155
399.690000	1087.000000	5767.500000	1.584100
400.190000	1086.500000	5872.000000	1.584046
400.690000	1086.000000	5962.000000	1.583991
401.190000	1085.500000	5725.500000	1.583936
401.690000	1085.000000	5637.500000	1.583881
402.190000	1084.500000	5484.500000	1.583826
402.690000	1084.000000	5266.000000	1.583771
403.190000	1083.500000	5049.500000	1.583717
403.690000	1083.000000	4793.500000	1.583662
404.190000	1082.500000	4643.000000	1.583607
404.690000	1082.000000	4596.500000	1.583552
405.190000	1081.500000	4649.500000	1.583497
405.690000	1081.000000	4740.500000	1.583442
406.190000	1080.500000	4807.500000	1.583387
406.690000	1080.000000	4850.500000	1.583333
407.190000	1079.500000	4841.500000	1.583278
407.690000	1079.000000	4798.000000	1.583223
408.190000	1078.500000	4676.500000	1.583168
408.690000	1078.000000	4437.000000	1.583113
409.190000	1077.500000	4226.500000	1.583058
409.690000	1077.000000	4009.000000	1.583004
410.190000	1076.500000	3774.500000	1.582949
410.690000	1076.000000	3663.000000	1.582894
411.190000	1075.500000	3540.000000	1.582839
411.690000	1075.000000	3481.000000	1.582784
412.190000	1074.500000	3321.000000	1.582729
412.690000	1074.000000	3275.500000	1.582675
413.190000	1073.500000	3174.000000	1.582620
413.690000	1073.000000	3209.000000	1.582565
414.190000	1072.500000	3119.000000	1.582510
414.690000	1072.000000	3203.500000	1.582455
415.190000	1071.500000	3174.500000	1.582400
415.690000	1071.000000	3223.000000	1.582345
416.190000	1070.500000	3257.500000	1.582291
416.690000	1070.000000	3208.500000	1.582236
417.190000	1069.500000	3217.000000	1.582181
417.690000	1069.000000	3267.000000	1.582126
418.190000	1068.500000	3281.500000	1.582071
418.690000	1068.000000	3299.500000	1.582016
419.190000	1067.500000	3271.000000	1.581962
419.690000	1067.000000	3305.500000	1.581907
420.190000	1066.500000	3311.500000	1.581852
420.690000	1066.000000	3344.500000	1.581797
421.190000	1065.500000	3292.000000	1.581742
421.690000	1065.000000	3272.000000	1.581687
422.190000	1064.500000	3320.500000	1.581633
422.690000	1064.000000	3376.000000	1.581578
423.190000	1063.500000	3383.000000	1.581523
423.690000	1063.000000	3425.000000	1.581468
424.190000	1062.500000	3468.500000	1.581413
424.690000	1062.000000	3539.500000	1.581358
425.190000	1061.500000	3503.500000	1.581303
425.690000	1061.000000	3502.000000	1.581249
426.190000	1060.500000	3496.500000	1.581194
426.690000	1060.000000	3513.000000	1.581139
427.190000	1059.500000	3458.000000	1.581084
427.690000	1059.000000	3507.500000	1.581029
428.190000	1058.500000	3388.000000	1.580974
428.690000	1058.000000	3417.500000	1.580920
429.190000	1057.500000	3327.000000	1.580865
429.690000	1057.000000	3295.500000	1.580810
430.190000	1056.500000	3302.000000	1.580755
430.690000	1056.000000	3228.000000	1.580700
431.190000	1055.500000	3340.000000	1.580645
431.690000	1055.000000	3290.500000	1.580590
432.190000	1054.500000	3315.000000	1.580536
432.690000	1054.000000	3351.000000	1.580481
433.190000	1053.500000	3333.000000	1.580426
433.690000	1053.000000	3314.500000	1.580371
434.190000	1052.500000	3346.000000	1.580316
434.690000	1052.000000	3331.500000	1.580261
435.190000	1051.500000	3238.000000	1.580207
435.690000	1051.000000	3231.000000	1.580152
436.190000	1050.500000	3156.500000	1.580097
436.690000	1050.000000	3170.000000	1.580042
437.190000	1049.500000	3181.000000	1.579987
437.690000	1049.000000	3227.000000	1.579932
438.190000	1048.500000	3146.000000	1.579878
438.690000	1048.000000	3157.000000	1.579823
439.190000	1047.500000	3131.000000	1.579768
439.690000	1047.000000	3152.000000	1.579713
440.190000	1046.500000	3156.500000	1.579658
440.690000	1046.000000	3134.000000	1.579603
441.190000	1045.500000	3204.500000	1.579548
441.690000	1045.000000	3179.500000	1.579494
442.190000	1044.500000	3196.000000	1.579439
442.690000	1044.000000	3231.000000	1.579384
443.190000	1043.500000	3230.000000	1.579329
443.690000	1043.000000	3144.500000	1.579274
444.190000	1042.500000	3198.500000	1.579219
444.690000	1042.000000	3259.000000	1.579165
445.190000	1041.500000	3207.000000	1.579110
445.690000	1041.000000	3328.000000	1.579055
446.190000	1040.500000	3275.000000	1.579000
446.690000	1040.000000	3242.500000	1.578945
447.190000	1039.500000	3257.000000	1.578890
447.690000	1039.000000	3236.000000	1.578836
448.190000	1038.500000	3228.000000	1.578781
448.690000	1038.000000	3249.000000	1.578726
449.190000	1037.500000	3333.000000	1.578671
449.690000	1037.000000	3367.500000	1.578616
450.190000	1036.500000	3341.500000	1.578561
450.690000	1036.000000	3286.000000	1.578506
451.190000	1035.500000	3301.000000	1.578452
451.690000	1035.000000	3321.000000	1.578397
452.190000	1034.500000	3337.000000	1.578342
452.690000	1034.000000	3342.500000	1.578287
453.190000	1033.500000	3402.000000	1.578232
453.690000	1033.000000	3372.000000	1.578177
454.190000	1032.500000	3324.500000	1.578123
454.690000	1032.000000	3312.000000	1.578068
455.190000	1031.500000	3360.500000	1.578013
455.690000	1031.000000	3418.000000	1.577958
456.190000	1030.500000	3419.500000	1.577908
456.690000	1030.000000	3353.000000	1.577869
457.190000	1029.500000	3380.000000	1.577830
457.690000	1029.000000	3378.000000	1.577790
458.190000	1028.500000	3405.000000	1.577751
458.690000	1028.000000	3399.000000	1.577712
459.190000	1027.500000	3450.000000	1.577673
459.690000	1027.000000	3482.000000	1.577633
460.190000	1026.500000	3454.000000	1.577594
460.690000	1026.000000	3468.500000	1.577555
461.190000	1025.500000	3483.000000	1.577515
461.690000	1025.000000	3484.000000	1.577476
462.190000	1024.500000	3559.500000	1.577437
462.690000	1024.000000	3479.000000	1.577398
463.190000	1023.500000	3495.000000	1.577358
463.690000	1023.000000	3532.500000	1.577319
464.190000	1022.500000	3490.000000	1.577280
464.690000	1022.000000	3480.500000	1.577240
465.190000	1021.500000	3514.000000	1.577201
465.690000	1021.000000	3505.500000	1.577162
466.190000	1020.500000	3563.000000	1.577123
466.690000	1020.000000	3541.000000	1.577083
467.190000	1019.500000	3562.500000	1.577044
467.690000	1019.000000	3548.500000	1.577005
468.190000	1018.500000	3560.000000	1.576965
468.690000	1018.000000	3556.000000	1.576926
469.190000	1017.500000	3595.500000	1.576887
469.690000	1017.000000	3573.500000	1.576848
470.190000	1016.500000	3611.500000	1.576808
470.690000	1016.000000	3712.500000	1.576769
471.190000	1015.500000	3665.500000	1.576730
471.690000	1015.000000	3682.000000	1.576691
472.190000	1014.500000	3623.500000	1.576651
472.690000	1014.000000	3685.500000	1.576612
473.190000	1013.500000	3678.000000	1.576573
473.690000	1013.000000	3660.000000	1.576533
474.190000	1012.500000	3695.500000	1.576494
474.690000	1012.000000	3718.000000	1.576455
475.190000	1011.500000	3716.000000	1.576416
475.690000	1011.000000	3715.000000	1.576376
476.190000	1010.500000	3778.500000	1.576337
476.690000	1010.000000	3762.500000	1.576298
477.190000	1009.500000	3768.500000	1.576258
477.690000	1009.000000	3748.000000	1.576219
478.190000	1008.500000	3748.000000	1.576180
478.690000	1008.000000	3796.000000	1.576141
479.190000	1007.500000	3840.000000	1.576101
479.690000	1007.000000	3797.500000	1.576062
480.190000	1006.500000	3769.000000	1.576023
480.690000	1006.000000	3868.500000	1.575983
481.190000	1005.500000	3851.500000	1.575944
481.690000	1005.000000	3748.000000	1.575905
482.190000	1004.500000	3802.000000	1.575866
482.690000	1004.000000	3795.500000	1.575826
483.190000	1003.500000	3796.000000	1.575787
483.690000	1003.000000	3823.500000	1.575748
484.190000	1002.500000	3880.500000	1.575709
484.690000	1002.000000	3868.000000	1.575669
485.190000	1001.500000	3923.000000	1.575630
485.690000	1001.000000	3902.500000	1.575591
486.190000	1000.500000	3924.500000	1.575551
486.690000	1000.000000	3935.500000	1.575512
487.190000	999.500000	3931.500000	1.575473
487.690000	999.000000	4079.000000	1.575434
488.190000	998.500000	4099.500000	1.575394
488.690000	998.000000	4052.500000	1.575355
489.190000	997.500000	4051.500000	1.575316
489.690000	997.000000	4061.500000	1.575276
490.190000	996.500000	4090.500000	1.575237
490.690000	996.000000	4102.500000	1.575198
491.190000	995.500000	4164.500000	1.575159
491.690000	995.000000	4248.500000	1.575119
492.190000	994.500000	4224.000000	1.575080
492.690000	994.000000	4234.000000	1.575041
493.190000	993.500000	4218.500000	1.575001
493.690000	993.000000	4100.500000	1.574962
494.190000	992.500000	4060.500000	1.574923
494.690000	992.000000	3996.500000	1.574884
495.190000	991.500000	3983.500000	1.574844
495.690000	991.000000	3975.000000	1.574805
496.190000	990.500000	4033.500000	1.574766
496.690000	990.000000	4044.000000	1.574727
497.190000	989.500000	4020.000000	1.574687
497.690000	989.000000	4047.500000	1.574648
498.190000	988.500000	3990.000000	1.574609
498.690000	988.000000	4040.500000	1.574569
499.190000	987.500000	3988.000000	1.574530
499.690000	987.000000	4006.500000	1.574491
500.190000	986.500000	3980.000000	1.574452
500.690000	986.000000	3991.500000	1.574412
501.190000	985.500000	4007.500000	1.574373
501.690000	985.000000	4041.500000	1.574334
502.190000	984.500000	4026.000000	1.574294
502.690000	984.000000	4040.000000	1.574255
503.190000	983.500000	3984.500000	1.574216
503.690000	983.000000	3975.000000	1.574177
504.190000	982.500000	4083.000000	1.574137
504.690000	982.000000	4076.500000	1.574098
505.190000	981.500000	4077.000000	1.574059
505.690000	981.000000	4088.000000	1.574019
506.190000	980.500000	4197.000000	1.573980
506.690000	980.000000	4106.500000	1.573941
507.190000	979.500000	4185.000000	1.573902
507.690000	979.000000	4302.000000	1.573862
508.190000	978.500000	4352.000000	1.573823
508.690000	978.000000	4418.500000	1.573784
509.190000	977.500000	4535.500000	1.573745
509.690000	977.000000	4617.500000	1.573705
510.190000	976.500000	4789.500000	1.573666
510.690000	976.000000	4930.500000	1.573627
511.190000	975.500000	5067.000000	1.573587
511.690000	975.000000	5245.500000	1.573548
512.190000	974.500000	5278.500000	1.573509
512.690000	974.000000	5241.000000	1.573470
513.190000	973.500000	5073.000000	1.573430
513.690000	973.000000	4886.500000	1.573391
514.190000	972.500000	4672.000000	1.573352
514.690000	972.000000	4573.500000	1.573312
515.190000	971.500000	4354.000000	1.573273
515.690000	971.000000	4316.500000	1.573234
516.190000	970.500000	4254.500000	1.573195
516.690000	970.000000	4203.500000	1.573155
517.190000	969.500000	4200.000000	1.573116
517.690000	969.000000	4175.000000	1.573077
518.190000	968.500000	4123.000000	1.573037
518.690000	968.000000	4114.000000	1.572998
519.190000	967.500000	4047.500000	1.572959
519.690000	967.000000	4053.500000	1.572920
520.190000	966.500000	4072.500000	1.572880
520.690000	966.000000	3960.000000	1.572841
521.190000	965.500000	3993.500000	1.572802
521.690000	965.000000	3886.500000	1.572763
522.190000	964.500000	3856.500000	1.572723
522.690000	964.000000	3830.500000	1.572684
523.190000	963.500000	3755.500000	1.572645
523.690000	963.000000	3791.000000	1.572605
524.190000	962.500000	3887.000000	1.572566
524.690000	962.000000	3817.000000	1.572527
525.190000	961.500000	3801.000000	1.572488
525.690000	961.000000	3831.500000	1.572448
526.190000	960.500000	3870.000000	1.572409
526.690000	960.000000	3840.500000	1.572370
527.190000	959.500000	3870.000000	1.572330
527.690000	959.000000	3909.500000	1.572291
528.190000	958.500000	3870.500000	1.572252
528.690000	958.000000	3853.000000	1.572213
529.190000	957.500000	3908.500000	1.572173
529.690000	957.000000	3874.500000	1.572134
530.190000	956.500000	3840.000000	1.572095
530.690000	956.000000	3894.000000	1.572056
531.190000	955.500000	3887.000000	1.572016
531.690000	955.000000	3919.000000	1.571977
532.190000	954.500000	3948.000000	1.571938
532.690000	954.000000	3970.000000	1.571898
533.190000	953.500000	3919.000000	1.571859
533.690000	953.000000	3997.000000	1.571820
534.190000	952.500000	3993.000000	1.571781
534.690000	952.000000	3950.500000	1.571741
535.190000	951.500000	3921.000000	1.571702
535.690000	951.000000	3924.500000	1.571663
536.190000	950.500000	3924.500000	1.571623
536.690000	950.000000	3991.500000	1.571584
537.190000	949.500000	3956.500000	1.571545
537.690000	949.000000	3970.500000	1.571506
538.190000	948.500000	3967.000000	1.571466
538.690000	948.000000	4011.000000	1.571427
539.190000	947.500000	4094.500000	1.571388
539.690000	947.000000	4082.000000	1.571348
540.190000	946.500000	4037.500000	1.571309
540.690000	946.000000	4079.500000	1.571270
541.190000	945.500000	4036.500000	1.571231
541.690000	945.000000	4079.000000	1.571191
542.190000	944.500000	4045.500000	1.571152
542.690000	944.000000	4068.500000	1.571113
543.190000	943.500000	4059.000000	1.571074
543.690000	943.000000	4086.500000	1.571034
544.190000	942.500000	3956.500000	1.570995
544.690000	942.000000	4087.000000	1.570956
545.190000	941.500000	4131.500000	1.570916
545.690000	941.000000	4120.500000	1.570877
546.190000	940.500000	4112.000000	1.570838
546.690000	940.000000	4159.500000	1.570799
547.190000	939.500000	4136.000000	1.570759
547.690000	939.000000	4027.000000	1.570720
548.190000	938.500000	4042.500000	1.570681
548.690000	938.000000	4134.000000	1.570641
549.190000	937.500000	4169.500000	1.570602
549.690000	937.000000	4138.500000	1.570563
550.190000	936.500000	4134.500000	1.570524
550.690000	936.000000	4159.000000	1.570484
551.190000	935.500000	4124.500000	1.570445
551.690000	935.000000	4154.500000	1.570406
552.190000	934.500000	4211.000000	1.570366
552.690000	934.000000	4218.500000	1.570327
553.190000	933.500000	4320.500000	1.570288
553.690000	933.000000	4297.000000	1.570249
554.190000	932.500000	4248.500000	1.570209
554.690000	932.000000	4305.000000	1.570170
555.190000	931.500000	4294.000000	1.570131
555.690000	931.000000	4324.000000	1.570092
556.190000	930.500000	4215.000000	1.570052
556.690000	930.000000	4233.000000	1.570013
557.190000	929.500000	4310.000000	1.569974
557.690000	929.000000	4242.000000	1.569934
558.190000	928.500000	4242.000000	1.569895
558.690000	928.000000	4259.000000	1.569856
559.190000	927.500000	4250.500000	1.569817
559.690000	927.000000	4317.000000	1.569777
560.190000	926.500000	4356.000000	1.569738
560.690000	926.000000	4289.000000	1.569699
561.190000	925.500000	4342.500000	1.569659
561.690000	925.000000	4275.500000	1.569620
562.190000	924.500000	4363.000000	1.569581
562.690000	924.000000	4351.500000	1.569542
563.190000	923.500000	4301.000000	1.569502
563.690000	923.000000	4315.000000	1.569463
564.190000	922.500000	4373.500000	1.569424
564.690000	922.000000	4378.000000	1.569384
565.190000	921.500000	4311.000000	1.569345
565.690000	921.000000	4304.500000	1.569306
566.190000	920.500000	4348.500000	1.569267
566.690000	920.000000	4389.000000	1.569227
567.190000	919.500000	4369.000000	1.569188
567.690000	919.000000	4446.500000	1.569149
568.190000	918.500000	4411.500000	1.569110
568.690000	918.000000	4310.000000	1.569070
569.190000	917.500000	4376.000000	1.569031
569.690000	917.000000	4433.000000	1.568992
570.190000	916.500000	4426.000000	1.568952
570.690000	916.000000	4420.000000	1.568913
571.190000	915.500000	4389.000000	1.568874
571.690000	915.000000	4430.500000	1.568835
572.190000	914.500000	4464.500000	1.568795
572.690000	914.000000	4417.500000	1.568756
573.190000	913.500000	4425.500000	1.568717
573.690000	913.000000	4396.000000	1.568677
574.190000	912.500000	4442.500000	1.568638
574.690000	912.000000	4514.000000	1.568599
575.190000	911.500000	4577.000000	1.568560
575.690000	911.000000	4465.000000	1.568520
576.190000	910.500000	4469.500000	1.568481
576.690000	910.000000	4469.000000	1.568442
577.190000	909.500000	4450.500000	1.568402
577.690000	909.000000	4524.000000	1.568363
578.190000	908.500000	4503.500000	1.568324
578.690000	908.000000	4507.500000	1.568285
579.190000	907.500000	4504.000000	1.568245
579.690000	907.000000	4592.500000	1.568206
580.190000	906.500000	4539.000000	1.568167
580.690000	906.000000	4523.500000	1.568128
581.190000	905.500000	4544.500000	1.568088
581.690000	905.000000	4600.500000	1.568049
582.190000	904.500000	4571.000000	1.568010
582.690000	904.000000	4575.500000	1.567970
583.190000	903.500000	4575.500000	1.567931
583.690000	903.000000	4590.500000	1.567892
584.190000	902.500000	4631.000000	1.567853
584.690000	902.000000	4615.500000	1.567813
585.190000	901.500000	4573.500000	1.567774
585.690000	901.000000	4609.000000	1.567735
586.190000	900.500000	4614.500000	1.567695
586.690000	900.000000	4655.000000	1.567656
587.190000	899.500000	4617.500000	1.567617
587.690000	899.000000	4621.500000	1.567578
588.190000	898.500000	4681.500000	1.567538
588.690000	898.000000	4694.000000	1.567499
589.190000	897.500000	4634.000000	1.567460
589.690000	897.000000	4594.500000	1.567420
590.190000	896.500000	4591.000000	1.567381
590.690000	896.000000	4712.500000	1.567342
591.190000	895.500000	4681.500000	1.567303
591.690000	895.000000	4754.500000	1.567263
592.190000	894.500000	4752.000000	1.567224
592.690000	894.000000	4786.500000	1.567185
593.190000	893.500000	4732.500000	1.567146
593.690000	893.000000	4718.500000	1.567106
594.190000	892.500000	4813.000000	1.567067
594.690000	892.000000	4760.500000	1.567028
595.190000	891.500000	4777.000000	1.566988
595.690000	891.000000	4721.500000	1.566949
596.190000	890.500000	4777.500000	1.566910
596.690000	890.000000	4818.000000	1.566871
597.190000	889.500000	4838.500000	1.566831
597.690000	889.000000	4811.000000	1.566792
598.190000	888.500000	4788.000000	1.566753
598.690000	888.000000	4895.500000	1.566713
599.190000	887.500000	4850.000000	1.566674
599.690000	887.000000	4883.000000	1.566635
600.190000	886.500000	4910.000000	1.566596
600.690000	886.000000	4865.000000	1.566556
601.190000	885.500000	4841.000000	1.566517
601.690000	885.000000	4774.500000	1.566478
602.190000	884.500000	4941.000000	1.566439
602.690000	884.000000	4938.500000	1.566399
603.190000	883.500000	4881.000000	1.566360
603.690000	883.000000	4852.000000	1.566321
604.190000	882.500000	4871.000000	1.566281
604.690000	882.000000	4916.500000	1.566242
605.190000	881.500000	4980.500000	1.566203
605.690000	881.000000	4895.500000	1.566164
606.190000	880.500000	4809.000000	1.566124
606.690000	880.000000	4924.500000	1.566085
607.190000	879.500000	4903.000000	1.566046
607.690000	879.000000	4963.000000	1.566006
608.190000	878.500000	4992.000000	1.565967
608.690000	878.000000	4878.500000	1.565928
609.190000	877.500000	4859.000000	1.565889
609.690000	877.000000	4915.000000	1.565849
610.190000	876.500000	4937.500000	1.565810
610.690000	876.000000	4908.000000	1.565771
611.190000	875.500000	4928.000000	1.565731
611.690000	875.000000	4948.000000	1.565692
612.190000	874.500000	4963.500000	1.565653
612.690000	874.000000	4993.500000	1.565614
613.190000	873.500000	4920.500000	1.565574
613.690000	873.000000	5057.000000	1.565535
614.190000	872.500000	4952.500000	1.565496
614.690000	872.000000	5032.500000	1.565457
615.190000	871.500000	5064.000000	1.565417
615.690000	871.000000	4955.500000	1.565378
616.190000	870.500000	5057.000000	1.565339
616.690000	870.000000	5019.000000	1.565299
617.190000	869.500000	4999.500000	1.565260
617.690000	869.000000	5069.000000	1.565221
618.190000	868.500000	5046.000000	1.565182
618.690000	868.000000	5004.000000	1.565142
619.190000	867.500000	4940.500000	1.565103
619.690000	867.000000	5021.000000	1.565064
620.190000	866.500000	5087.500000	1.565024
620.690000	866.000000	5088.000000	1.564985
621.190000	865.500000	5110.500000	1.564946
621.690000	865.000000	5142.000000	1.564907
622.190000	864.500000	5131.000000	1.564867
622.690000	864.000000	5167.500000	1.564828
623.190000	863.500000	5189.500000	1.564789
623.690000	863.000000	5130.500000	1.564749
624.190000	862.500000	5079.000000	1.564710
624.690000	862.000000	5118.500000	1.564671
625.190000	861.500000	5144.000000	1.564632
625.690000	861.000000	5156.000000	1.564592
626.190000	860.500000	5157.000000	1.564553
626.690000	860.000000	5146.500000	1.564514
627.190000	859.500000	5119.500000	1.564475
627.690000	859.000000	5172.500000	1.564435
628.190000	858.500000	5161.000000	1.564396
628.690000	858.000000	5142.000000	1.564357
629.190000	857.500000	5237.000000	1.564317
629.690000	857.000000	5244.500000	1.564278
630.190000	856.500000	5254.000000	1.564239
630.690000	856.000000	5323.500000	1.564200
631.190000	855.500000	5156.500000	1.564160
631.690000	855.000000	5342.500000	1.564121
632.190000	854.500000	5297.000000	1.564082
632.690000	854.000000	5283.500000	1.564042
633.190000	853.500000	5345.000000	1.564003
633.690000	853.000000	5265.500000	1.563964
634.190000	852.500000	5301.000000	1.563925
634.690000	852.000000	5305.000000	1.563885
635.190000	851.500000	5339.000000	1.563846
635.690000	851.000000	5364.000000	1.563807
636.190000	850.500000	5353.000000	1.563767
636.690000	850.000000	5358.500000	1.563728
637.190000	849.500000	5364.000000	1.563689
637.690000	849.000000	5448.000000	1.563650
638.190000	848.500000	5383.500000	1.563610
638.690000	848.000000	5409.500000	1.563571
639.190000	847.500000	5380.000000	1.563532
639.690000	847.000000	5400.000000	1.563493
640.190000	846.500000	5397.000000	1.563453
640.690000	846.000000	5416.500000	1.563414
641.190000	845.500000	5413.500000	1.563375
641.690000	845.000000	5485.500000	1.563335
642.190000	844.500000	5435.500000	1.563296
642.690000	844.000000	5436.500000	1.563257
643.190000	843.500000	5458.500000	1.563218
643.690000	843.000000	5491.000000	1.563178
644.190000	842.500000	5444.500000	1.563139
644.690000	842.000000	5456.500000	1.563100
645.190000	841.500000	5433.500000	1.563060
645.690000	841.000000	5465.500000	1.563021
646.190000	840.500000	5508.500000	1.562982
646.690000	840.000000	5550.000000	1.562943
647.190000	839.500000	5524.000000	1.562903
647.690000	839.000000	5503.500000	1.562864
648.190000	838.500000	5539.500000	1.562825
648.690000	838.000000	5564.500000	1.562785
649.190000	837.500000	5549.500000	1.562746
649.690000	837.000000	5487.000000	1.562707
650.190000	836.500000	5596.000000	1.562668
650.690000	836.000000	5645.500000	1.562628
651.190000	835.500000	5636.500000	1.562589
651.690000	835.000000	5690.500000	1.562550
652.190000	834.500000	5621.500000	1.562511
652.690000	834.000000	5765.500000	1.562471
653.190000	833.500000	5735.000000	1.562432
653.690000	833.000000	5822.500000	1.562393
654.190000	832.500000	5831.000000	1.562353
654.690000	832.000000	5766.000000	1.562314
655.190000	831.500000	5812.500000	1.562275
655.690000	831.000000	5956.000000	1.562236
656.190000	830.500000	6073.500000	1.562196
656.690000	830.000000	5960.500000	1.562157
657.190000	829.500000	6121.000000	1.562118
657.690000	829.000000	6185.000000	1.562078
658.190000	828.500000	6215.000000	1.562039
658.690000	828.000000	6126.500000	1.562000
659.190000	827.500000	6141.000000	1.561961
659.690000	827.000000	6132.000000	1.561921
660.190000	826.500000	6062.000000	1.561882
660.690000	826.000000	6108.000000	1.561843
661.190000	825.500000	6054.000000	1.561803
661.690000	825.000000	5954.500000	1.561764
662.190000	824.500000	5927.000000	1.561725
662.690000	824.000000	5864.000000	1.561686
663.190000	823.500000	5872.500000	1.561646
663.690000	823.000000	5791.000000	1.561607
664.190000	822.500000	5811.000000	1.561568
664.690000	822.000000	5800.500000	1.561529
665.190000	821.500000	5714.000000	1.561536
665.690000	821.000000	5773.000000	1.561588
666.190000	820.500000	5721.500000	1.561641
666.690000	820.000000	5706.500000	1.561693
667.190000	819.500000	5667.000000	1.561745
667.690000	819.000000	5652.000000	1.561798
668.190000	818.500000	5615.500000	1.561850
668.690000	818.000000	5624.500000	1.561902
669.190000	817.500000	5697.000000	1.561954
669.690000	817.000000	5601.000000	1.562007
670.190000	816.500000	5655.500000	1.562059
670.690000	816.000000	5592.500000	1.562111
671.190000	815.500000	5576.500000	1.562164
671.690000	815.000000	5609.000000	1.562216
672.190000	814.500000	5571.000000	1.562268
672.690000	814.000000	5560.500000	1.562321
673.190000	813.500000	5596.500000	1.562373
673.690000	813.000000	5520.500000	1.562425
674.190000	812.500000	5610.000000	1.562477
674.690000	812.000000	5669.500000	1.562530
675.190000	811.500000	5649.500000	1.562582
675.690000	811.000000	5619.000000	1.562634
676.190000	810.500000	5596.500000	1.562687
676.690000	810.000000	5653.500000	1.562739
677.190000	809.500000	5624.000000	1.562791
677.690000	809.000000	5584.500000	1.562843
678.190000	808.500000	5559.000000	1.562896
678.690000	808.000000	5603.500000	1.562948
679.190000	807.500000	5567.000000	1.563000
679.690000	807.000000	5634.000000	1.563053
680.190000	806.500000	5648.500000	1.563105
680.690000	806.000000	5560.000000	1.563157
681.190000	805.500000	5552.000000	1.563210
681.690000	805.000000	5613.500000	1.563262
682.190000	804.500000	5640.000000	1.563314
682.690000	804.000000	5664.500000	1.563366
683.190000	803.500000	5628.000000	1.563419
683.690000	803.000000	5689.000000	1.563471
684.190000	802.500000	5687.500000	1.563523
684.690000	802.000000	5656.500000	1.563576
685.190000	801.500000	5603.000000	1.563628
685.690000	801.000000	5666.500000	1.563680
686.190000	800.500000	5709.500000	1.563733
686.690000	800.000000	5751.000000	1.563785
687.190000	799.500000	5636.500000	1.563837
687.690000	799.000000	5664.500000	1.563889
688.190000	798.500000	5638.000000	1.563942
688.690000	798.000000	5670.500000	1.563994
689.190000	797.500000	5769.000000	1.564046
689.690000	797.000000	5709.500000	1.564099
690.190000	796.500000	5704.500000	1.564151
690.690000	796.000000	5684.000000	1.564203
691.190000	795.500000	5738.500000	1.564255
691.690000	795.000000	5823.500000	1.564308
692.190000	794.500000	5751.000000	1.564360
692.690000	794.000000	5722.500000	1.564412
693.190000	793.500000	5739.000000	1.564465
693.690000	793.000000	5806.000000	1.564517
694.190000	792.500000	5712.500000	1.564569
694.690000	792.000000	5700.500000	1.564622
695.190000	791.500000	5655.000000	1.564674
695.690000	791.000000	5732.500000	1.564726
696.190000	790.500000	5748.000000	1.564778
696.690000	790.000000	5804.500000	1.564831
697.190000	789.500000	5804.500000	1.564883
697.690000	789.000000	5761.500000	1.564935
698.190000	788.500000	5750.500000	1.564988
698.690000	788.000000	5788.500000	1.565040
699.190000	787.500000	5821.000000	1.565092
699.690000	787.000000	5809.500000	1.565145
700.190000	786.500000	5872.000000	1.565197
700.690000	786.000000	5786.000000	1.565249
701.190000	785.500000	5831.000000	1.565301
701.690000	785.000000	5773.500000	1.565354
702.190000	784.500000	5860.500000	1.565406
702.690000	784.000000	5806.500000	1.565458
703.190000	783.500000	5834.500000	1.565511
703.690000	783.000000	5788.500000	1.565563
704.190000	782.500000	5933.500000	1.565615
704.690000	782.000000	5880.500000	1.565667
705.190000	781.500000	5868.000000	1.565720
705.690000	781.000000	5837.500000	1.565772
706.190000	780.500000	5889.500000	1.565824
706.690000	780.000000	5910.000000	1.565877
707.190000	779.500000	5750.500000	1.565929
707.690000	779.000000	5947.500000	1.565981
708.190000	778.500000	5955.000000	1.566034
708.690000	778.000000	5879.500000	1.566086
709.190000	777.500000	5960.500000	1.566138
709.690000	777.000000	6015.500000	1.566190
710.190000	776.500000	6010.000000	1.566243
710.690000	776.000000	6019.000000	1.566295
711.190000	775.500000	5974.500000	1.566347
711.690000	775.000000	5959.000000	1.566400
712.190000	774.500000	6002.000000	1.566452
712.690000	774.000000	6040.500000	1.566504
713.190000	773.500000	6024.000000	1.566557
713.690000	773.000000	6071.000000	1.566609
714.190000	772.500000	5982.000000	1.566661
714.690000	772.000000	6032.000000	1.566713
715.190000	771.500000	6030.000000	1.566766
715.690000	771.000000	6068.500000	1.566818
716.190000	770.500000	6096.000000	1.566870
716.690000	770.000000	6056.000000	1.566923
717.190000	769.500000	6051.000000	1.566975
717.690000	769.000000	6003.000000	1.567027
718.190000	768.500000	5951.000000	1.567079
718.690000	768.000000	6006.000000	1.567132
719.190000	767.500000	6000.000000	1.567184
719.690000	767.000000	6001.500000	1.567236
720.190000	766.500000	6019.000000	1.567289
720.690000	766.000000	6057.500000	1.567341
721.190000	765.500000	6109.500000	1.567393
721.690000	765.000000	6074.500000	1.567446
722.190000	764.500000	6072.000000	1.567498
722.690000	764.000000	6182.000000	1.567550
723.190000	763.500000	6247.500000	1.567602
723.690000	763.000000	6135.000000	1.567655
724.190000	762.500000	6196.500000	1.567707
724.690000	762.000000	6253.500000	1.567759
725.190000	761.500000	6248.500000	1.567812
725.690000	761.000000	6223.500000	1.567864
726.190000	760.500000	6314.000000	1.567916
726.690000	760.000000	6324.000000	1.567969
727.190000	759.500000	6418.500000	1.568021
727.690000	759.000000	6529.000000	1.568073
728.190000	758.500000	6555.500000	1.568125
728.690000	758.000000	6547.500000	1.568178
729.190000	757.500000	6503.500000	1.568230
729.690000	757.000000	6437.500000	1.568282
730.190000	756.500000	6255.000000	1.568335
730.690000	756.000000	6290.000000	1.568387
731.190000	755.500000	6326.000000	1.568439
731.690000	755.000000	6362.000000	1.568492
732.190000	754.500000	6204.000000	1.568544
732.690000	754.000000	6242.500000	1.568596
733.190000	753.500000	6147.000000	1.568648
733.690000	753.000000	6248.000000	1.568701
734.190000	752.500000	6266.000000	1.568753
734.690000	752.000000	6153.500000	1.568805
735.190000	751.500000	6252.500000	1.568858
735.690000	751.000000	6287.500000	1.568910
736.190000	750.500000	6297.000000	1.568962
736.690000	750.000000	6310.500000	1.569014
737.190000	749.500000	6322.000000	1.569067
737.690000	749.000000	6329.000000	1.569119
738.190000	748.500000	6311.500000	1.569171
738.690000	748.000000	6251.500000	1.569224
739.190000	747.500000	6313.500000	1.569276
739.690000	747.000000	6364.000000	1.569328
740.190000	746.500000	6339.500000	1.569381
740.690000	746.000000	6246.500000	1.569433
741.190000	745.500000	6251.000000	1.569485
741.690000	745.000000	6428.500000	1.569537
742.190000	744.500000	6409.500000	1.569590
742.690000	744.000000	6355.000000	1.569642
743.190000	743.500000	6410.500000	1.569694
743.690000	743.000000	6348.500000	1.569747
744.190000	742.500000	6368.000000	1.569799
744.690000	742.000000	6444.000000	1.569851
745.190000	741.500000	6323.000000	1.569904
745.690000	741.000000	6391.000000	1.569956
746.190000	740.500000	6458.500000	1.570008
746.690000	740.000000	6450.500000	1.570060
747.190000	739.500000	6405.500000	1.570113
747.690000	739.000000	6310.000000	1.570165
748.190000	738.500000	6348.000000	1.570217
748.690000	738.000000	6411.500000	1.570270
749.190000	737.500000	6426.500000	1.570322
749.690000	737.000000	6469.500000	1.570374
750.190000	736.500000	6461.500000	1.570426
750.690000	736.000000	6472.000000	1.570479
751.190000	735.500000	6519.500000	1.570531
751.690000	735.000000	6543.000000	1.570583
752.190000	734.500000	6523.500000	1.570636
752.690000	734.000000	6520.500000	1.570688
753.190000	733.500000	6543.000000	1.570740
753.690000	733.000000	6547.500000	1.570793
754.190000	732.500000	6527.000000	1.570845
754.690000	732.000000	6548.500000	1.570897
755.190000	731.500000	6537.000000	1.570949
755.690000	731.000000	6477.500000	1.571002
756.190000	730.500000	6554.000000	1.571054
756.690000	730.000000	6588.500000	1.571106
757.190000	729.500000	6537.500000	1.571159
757.690000	729.000000	6540.000000	1.571211
758.190000	728.500000	6631.000000	1.571263
758.690000	728.000000	6629.500000	1.571316
759.190000	727.500000	6639.500000	1.571368
759.690000	727.000000	6651.000000	1.571420
760.190000	726.500000	6705.000000	1.571472
760.690000	726.000000	6768.500000	1.571525
761.190000	725.500000	6719.000000	1.571577
761.690000	725.000000	6688.500000	1.571629
762.190000	724.500000	6724.000000	1.571682
762.690000	724.000000	6662.000000	1.571734
763.190000	723.500000	6700.000000	1.571786
763.690000	723.000000	6732.000000	1.571838
764.190000	722.500000	6797.500000	1.571891
764.690000	722.000000	6881.500000	1.571943
765.190000	721.500000	6798.500000	1.571995
765.690000	721.000000	6855.500000	1.572048
766.190000	720.500000	6904.000000	1.572100
766.690000	720.000000	6856.000000	1.572152
767.190000	719.500000	6922.500000	1.572205
767.690000	719.000000	6926.000000	1.572257
768.190000	718.500000	7120.000000	1.572309
768.690000	718.000000	7191.000000	1.572361
769.190000	717.500000	7296.000000	1.572414
769.690000	717.000000	7463.500000	1.572466
770.190000	716.500000	7491.000000	1.572518
770.690000	716.000000	7510.000000	1.572571
771.190000	715.500000	7359.500000	1.572623
771.690000	715.000000	7122.000000	1.572675
772.190000	714.500000	6997.000000	1.572728
772.690000	714.000000	6852.000000	1.572780
773.190000	713.500000	6760.000000	1.572832
773.690000	713.000000	6748.500000	1.572884
774.190000	712.500000	6735.500000	1.572937
774.690000	712.000000	6698.000000	1.572989
775.190000	711.500000	6677.000000	1.573041
775.690000	711.000000	6608.500000	1.573094
776.190000	710.500000	6651.500000	1.573146
776.690000	710.000000	6642.000000	1.573198
777.190000	709.500000	6646.500000	1.573251
777.690000	709.000000	6773.500000	1.573303
778.190000	708.500000	6821.000000	1.573355
778.690000	708.000000	7108.500000	1.573407
779.190000	707.500000	7369.000000	1.573460
779.690000	707.000000	7582.000000	1.573512
780.190000	706.500000	7885.500000	1.573564
780.690000	706.000000	8364.000000	1.573617
781.190000	705.500000	8960.000000	1.573669
781.690000	705.000000	9666.500000	1.573721
782.190000	704.500000	10205.000000	1.573773
782.690000	704.000000	10303.500000	1.573826
783.190000	703.500000	10017.500000	1.573878
783.690000	703.000000	9340.000000	1.573930
784.190000	702.500000	8587.500000	1.573983
784.690000	702.000000	7854.500000	1.574035
785.190000	701.500000	7452.500000	1.574087
785.690000	701.000000	7155.000000	1.574140
786.190000	700.500000	6929.500000	1.574192
786.690000	700.000000	6803.000000	1.574244
787.190000	699.500000	6662.000000	1.574296
787.690000	699.000000	6589.000000	1.574349
788.190000	698.500000	6512.500000	1.574401
788.690000	698.000000	6397.000000	1.574453
789.190000	697.500000	6421.500000	1.574506
789.690000	697.000000	6347.000000	1.574558
790.190000	696.500000	6324.000000	1.574610
790.690000	696.000000	6364.500000	1.574663
791.190000	695.500000	6355.000000	1.574715
791.690000	695.000000	6410.500000	1.574767
792.190000	694.500000	6320.500000	1.574819
792.690000	694.000000	6352.000000	1.574872
793.190000	693.500000	6317.000000	1.574924
793.690000	693.000000	6443.000000	1.574976
794.190000	692.500000	6351.000000	1.575029
794.690000	692.000000	6321.500000	1.575081
795.190000	691.500000	6350.500000	1.575133
795.690000	691.000000	6406.500000	1.575185
796.190000	690.500000	6413.000000	1.575238
796.690000	690.000000	6352.500000	1.575290
797.190000	689.500000	6388.500000	1.575342
797.690000	689.000000	6382.500000	1.575395
798.190000	688.500000	6469.000000	1.575447
798.690000	688.000000	6504.500000	1.575499
799.190000	687.500000	6529.500000	1.575552
799.690000	687.000000	6479.500000	1.575604
800.190000	686.500000	6462.500000	1.575656
800.690000	686.000000	6590.500000	1.575708
801.190000	685.500000	6629.000000	1.575761
801.690000	685.000000	6728.500000	1.575813
802.190000	684.500000	6634.000000	1.575865
802.690000	684.000000	6600.000000	1.575918
803.190000	683.500000	6559.000000	1.575970
803.690000	683.000000	6533.000000	1.576022
804.190000	682.500000	6541.500000	1.576075
804.690000	682.000000	6518.500000	1.576127
805.190000	681.500000	6474.000000	1.576179
805.690000	681.000000	6372.500000	1.576231
806.190000	680.500000	6470.000000	1.576284
806.690000	680.000000	6389.500000	1.576336
807.190000	679.500000	6336.000000	1.576388
807.690000	679.000000	6317.000000	1.576441
808.190000	678.500000	6314.500000	1.576493
808.690000	678.000000	6327.000000	1.576545
809.190000	677.500000	6236.500000	1.576597
809.690000	677.000000	6268.000000	1.576650
810.190000	676.500000	6256.500000	1.576702
810.690000	676.000000	6156.000000	1.576754
811.190000	675.500000	6175.500000	1.576807
811.690000	675.000000	6255.500000	1.576859
812.190000	674.500000	6255.500000	1.576911
812.690000	674.000000	6195.500000	1.576964
813.190000	673.500000	6220.000000	1.577016
813.690000	673.000000	6343.000000	1.577068
814.190000	672.500000	6397.000000	1.577120
814.690000	672.000000	6462.500000	1.577173
815.190000	671.500000	6650.000000	1.577225
815.690000	671.000000	6809.500000	1.577277
816.190000	670.500000	7003.500000	1.577330
816.690000	670.000000	7220.500000	1.577382
817.190000	669.500000	7766.000000	1.577434
817.690000	669.000000	8335.000000	1.577487
818.190000	668.500000	9170.500000	1.577539
818.690000	668.000000	10303.000000	1.577591
819.190000	667.500000	11586.000000	1.577643
819.690000	667.000000	12722.500000	1.577696
820.190000	666.500000	13641.000000	1.577748
820.690000	666.000000	13693.500000	1.577800
821.190000	665.500000	12886.000000	1.577853
821.690000	665.000000	11483.000000	1.577905
822.190000	664.500000	10014.000000	1.577957
822.690000	664.000000	8791.000000	1.578009
823.190000	663.500000	7886.500000	1.578062
823.690000	663.000000	7249.500000	1.578114
824.190000	662.500000	6751.000000	1.578166
824.690000	662.000000	6424.000000	1.578219
825.190000	661.500000	6222.500000	1.578271
825.690000	661.000000	6053.000000	1.578323
826.190000	660.500000	5788.000000	1.578376
826.690000	660.000000	5609.000000	1.578428
827.190000	659.500000	5629.500000	1.578480
827.690000	659.000000	5604.000000	1.578532
828.190000	658.500000	5544.500000	1.578585
828.690000	658.000000	5458.500000	1.578637
829.190000	657.500000	5424.000000	1.578689
829.690000	657.000000	5363.500000	1.578742
830.190000	656.500000	5330.500000	1.578794
830.690000	656.000000	5384.000000	1.578846
831.190000	655.500000	5376.000000	1.578899
831.690000	655.000000	5307.500000	1.578951
832.190000	654.500000	5284.000000	1.579003
832.690000	654.000000	5271.000000	1.579055
833.190000	653.500000	5296.000000	1.579108
833.690000	653.000000	5288.500000	1.579160
834.190000	652.500000	5307.500000	1.579212
834.690000	652.000000	5203.500000	1.579265
835.190000	651.500000	5214.500000	1.579317
835.690000	651.000000	5198.000000	1.579369
836.190000	650.500000	5246.500000	1.579422
836.690000	650.000000	5261.000000	1.579474
837.190000	649.500000	5276.000000	1.579526
837.690000	649.000000	5310.000000	1.579578
838.190000	648.500000	5278.500000	1.579631
838.690000	648.000000	5287.000000	1.579683
839.190000	647.500000	5279.500000	1.579735
839.690000	647.000000	5254.000000	1.579788
840.190000	646.500000	5264.000000	1.579840
840.690000	646.000000	5268.500000	1.579892
841.190000	645.500000	5256.000000	1.579944
841.690000	645.000000	5242.000000	1.579997
842.190000	644.500000	5278.500000	1.580049
842.690000	644.000000	5284.500000	1.580101
843.190000	643.500000	5216.000000	1.580154
843.690000	643.000000	5329.000000	1.580206
844.190000	642.500000	5276.000000	1.580258
844.690000	642.000000	5309.000000	1.580311
845.190000	641.500000	5304.000000	1.580363
845.690000	641.000000	5313.500000	1.580415
846.190000	640.500000	5249.000000	1.580467
846.690000	640.000000	5275.500000	1.580520
847.190000	639.500000	5291.000000	1.580572
847.690000	639.000000	5210.500000	1.580624
848.190000	638.500000	5259.000000	1.580677
848.690000	638.000000	5262.000000	1.580729
849.190000	637.500000	5218.500000	1.580781
849.690000	637.000000	5238.500000	1.580834
850.190000	636.500000	5294.500000	1.580886
850.690000	636.000000	5275.000000	1.580938
851.190000	635.500000	5244.000000	1.580990
851.690000	635.000000	5307.000000	1.581043
852.190000	634.500000	5254.000000	1.581095
852.690000	634.000000	5293.500000	1.581147
853.190000	633.500000	5275.000000	1.581200
853.690000	633.000000	5362.000000	1.581252
854.190000	632.500000	5270.500000	1.581304
854.690000	632.000000	5279.000000	1.581356
855.190000	631.500000	5406.000000	1.581409
855.690000	631.000000	5294.500000	1.581461
856.190000	630.500000	5332.000000	1.581513
856.690000	630.000000	5298.000000	1.581566
857.190000	629.500000	5376.500000	1.581618
857.690000	629.000000	5331.500000	1.581670
858.190000	628.500000	5319.000000	1.581723
858.690000	628.000000	5333.500000	1.581775
859.190000	627.500000	5336.500000	1.581827
859.690000	627.000000	5352.000000	1.581879
860.190000	626.500000	5286.000000	1.581932
860.690000	626.000000	5378.500000	1.581984
861.190000	625.500000	5440.000000	1.582036
861.690000	625.000000	5349.500000	1.582089
862.190000	624.500000	5348.000000	1.582141
862.690000	624.000000	5364.000000	1.582193
863.190000	623.500000	5407.500000	1.582246
863.690000	623.000000	5401.000000	1.582298
864.190000	622.500000	5364.000000	1.582350
864.690000	622.000000	5418.500000	1.582402
865.190000	621.500000	5411.500000	1.582455
865.690000	621.000000	5419.500000	1.582507
866.190000	620.500000	5452.000000	1.582559
866.690000	620.000000	5481.000000	1.582612
867.190000	619.500000	5448.500000	1.582664
867.690000	619.000000	5380.000000	1.582716
868.190000	618.500000	5333.500000	1.582768
868.690000	618.000000	5444.500000	1.582821
869.190000	617.500000	5410.000000	1.582873
869.690000	617.000000	5433.000000	1.582925
870.190000	616.500000	5476.500000	1.582978
870.690000	616.000000	5466.500000	1.583030
871.190000	615.500000	5381.500000	1.583082
871.690000	615.000000	5343.500000	1.583135
872.190000	614.500000	5414.500000	1.583187
872.690000	614.000000	5392.000000	1.583239
873.190000	613.500000	5442.500000	1.583291
873.690000	613.000000	5490.000000	1.583344
874.190000	612.500000	5433.000000	1.583396
874.690000	612.000000	5514.500000	1.583448
875.190000	611.500000	5463.500000	1.583501
875.690000	611.000000	5438.500000	1.583553
876.190000	610.500000	5454.000000	1.583605
876.690000	610.000000	5544.500000	1.583658
877.190000	609.500000	5615.500000	1.583710
877.690000	609.000000	5531.000000	1.583762
878.190000	608.500000	5531.500000	1.583814
878.690000	608.000000	5518.500000	1.583867
879.190000	607.500000	5515.500000	1.583919
879.690000	607.000000	5446.500000	1.583971
880.190000	606.500000	5463.000000	1.584024
880.690000	606.000000	5513.500000	1.584076
881.190000	605.500000	5519.000000	1.584128
881.690000	605.000000	5529.500000	1.584180
882.190000	604.500000	5561.500000	1.584233
882.690000	604.000000	5524.000000	1.584285
883.190000	603.500000	5515.500000	1.584337
883.690000	603.000000	5488.000000	1.584390
884.190000	602.500000	5464.000000	1.584442
884.690000	602.000000	5540.500000	1.584494
885.190000	601.500000	5567.000000	1.584547
885.690000	601.000000	5555.500000	1.584599
886.190000	600.500000	5556.000000	1.584651
886.690000	600.000000	5507.000000	1.584703
887.190000	599.500000	5585.500000	1.584673
887.690000	599.000000	5551.000000	1.584627
888.190000	598.500000	5563.000000	1.584581
888.690000	598.000000	5605.000000	1.584535
889.190000	597.500000	5528.500000	1.584489
889.690000	597.000000	5648.500000	1.584443
890.190000	596.500000	5577.000000	1.584397
890.690000	596.000000	5651.500000	1.584351
891.190000	595.500000	5597.000000	1.584305
891.690000	595.000000	5631.000000	1.584259
892.190000	594.500000	5588.500000	1.584213
892.690000	594.000000	5701.500000	1.584167
893.190000	593.500000	5613.000000	1.584121
893.690000	593.000000	5632.500000	1.584075
894.190000	592.500000	5718.500000	1.584029
894.690000	592.000000	5732.000000	1.583983
895.190000	591.500000	5661.000000	1.583937
895.690000	591.000000	5591.000000	1.583891
896.190000	590.500000	5650.000000	1.583845
896.690000	590.000000	5615.000000	1.583799
897.190000	589.500000	5631.000000	1.583753
897.690000	589.000000	5627.000000	1.583707
898.190000	588.500000	5608.500000	1.583661
898.690000	588.000000	5631.500000	1.583615
899.190000	587.500000	5704.500000	1.583569
899.690000	587.000000	5666.500000	1.583523
900.190000	586.500000	5657.000000	1.583477
900.690000	586.000000	5732.000000	1.583431
901.190000	585.500000	5754.500000	1.583385
901.690000	585.000000	5757.500000	1.583339
902.190000	584.500000	5679.500000	1.583293
902.690000	584.000000	5688.000000	1.583247
903.190000	583.500000	5735.000000	1.583201
903.690000	583.000000	5715.000000	1.583155
904.190000	582.500000	5745.000000	1.583109
904.690000	582.000000	5769.000000	1.583063
905.190000	581.500000	5703.000000	1.583017
905.690000	581.000000	5718.000000	1.582971
906.190000	580.500000	5682.500000	1.582925
906.690000	580.000000	5718.000000	1.582879
907.190000	579.500000	5790.500000	1.582832
907.690000	579.000000	5726.000000	1.582786
908.190000	578.500000	5763.000000	1.582740
908.690000	578.000000	5841.000000	1.582694
909.190000	577.500000	5761.500000	1.582648
909.690000	577.000000	5831.000000	1.582602
910.190000	576.500000	5801.000000	1.582556
910.690000	576.000000	5789.500000	1.582510
911.190000	575.500000	5879.500000	1.582464
911.690000	575.000000	5878.500000	1.582418
912.190000	574.500000	5830.000000	1.582372
912.690000	574.000000	5818.000000	1.582326
913.190000	573.500000	5866.000000	1.582280
913.690000	573.000000	5860.500000	1.582234
914.190000	572.500000	5824.000000	1.582188
914.690000	572.000000	5888.500000	1.582142
915.190000	571.500000	5901.000000	1.582096
915.690000	571.000000	5868.500000	1.582050
916.190000	570.500000	5884.000000	1.582004
916.690000	570.000000	5916.000000	1.581958
917.190000	569.500000	5949.500000	1.581912
917.690000	569.000000	5870.500000	1.581866
918.190000	568.500000	5958.500000	1.581820
918.690000	568.000000	5928.000000	1.581774
919.190000	567.500000	5991.500000	1.581728
919.690000	567.000000	5946.000000	1.581682
920.190000	566.500000	5903.500000	1.581636
920.690000	566.000000	5850.000000	1.581590
921.190000	565.500000	5905.500000	1.581544
921.690000	565.000000	5909.500000	1.581498
922.190000	564.500000	5855.000000	1.581452
922.690000	564.000000	5847.500000	1.581406
923.190000	563.500000	5898.500000	1.581360
923.690000	563.000000	5854.000000	1.581314
924.190000	562.500000	5925.500000	1.581268
924.690000	562.000000	5896.000000	1.581222
925.190000	561.500000	5873.000000	1.581176
925.690000	561.000000	5922.000000	1.581130
926.190000	560.500000	5881.000000	1.581084
926.690000	560.000000	5969.000000	1.581038
927.190000	559.500000	5957.500000	1.580992
927.690000	559.000000	5966.500000	1.580946
928.190000	558.500000	5936.500000	1.580900
928.690000	558.000000	5943.500000	1.580854
929.190000	557.500000	5989.500000	1.580808
929.690000	557.000000	6033.000000	1.580762
930.190000	556.500000	6094.500000	1.580715
930.690000	556.000000	6118.000000	1.580669
931.190000	555.500000	6097.500000	1.580623
931.690000	555.000000	6100.500000	1.580577
932.190000	554.500000	6088.000000	1.580531
932.690000	554.000000	6045.000000	1.580485
933.190000	553.500000	6146.000000	1.580439
933.690000	553.000000	6142.500000	1.580393
934.190000	552.500000	6223.500000	1.580347
934.690000	552.000000	6143.500000	1.580301
935.190000	551.500000	6169.500000	1.580255
935.690000	551.000000	6263.000000	1.580209
936.190000	550.500000	6213.000000	1.580163
936.690000	550.000000	6190.000000	1.580117
937.190000	549.500000	6245.000000	1.580071
937.690000	549.000000	6314.000000	1.580025
938.190000	548.500000	6240.000000	1.579979
938.690000	548.000000	6248.500000	1.579933
939.190000	547.500000	6290.500000	1.579887
939.690000	547.000000	6295.500000	1.579841
940.190000	546.500000	6244.500000	1.579795
940.690000	546.000000	6208.000000	1.579749
941.190000	545.500000	6104.500000	1.579703
941.690000	545.000000	5979.000000	1.579657
942.190000	544.500000	5935.500000	1.579611
942.690000	544.000000	5872.000000	1.579565
943.190000	543.500000	5784.000000	1.579519
943.690000	543.000000	5750.500000	1.579473
944.190000	542.500000	5735.500000	1.579427
944.690000	542.000000	5802.500000	1.579381
945.190000	541.500000	5781.000000	1.579335
945.690000	541.000000	5717.500000	1.579289
946.190000	540.500000	5707.500000	1.579243
946.690000	540.000000	5650.000000	1.579197
947.190000	539.500000	5619.000000	1.579151
947.690000	539.000000	5629.000000	1.579105
948.190000	538.500000	5638.000000	1.579059
948.690000	538.000000	5642.500000	1.579013
949.190000	537.500000	5621.500000	1.578967
949.690000	537.000000	5619.000000	1.578921
950.190000	536.500000	5595.500000	1.578875
950.690000	536.000000	5564.500000	1.578829
951.190000	535.500000	5698.000000	1.578783
951.690000	535.000000	5743.000000	1.578737
952.190000	534.500000	5909.500000	1.578691
952.690000	534.000000	5979.500000	1.578645
953.190000	533.500000	6453.000000	1.578598
953.690000	533.000000	7020.500000	1.578552
954.190000	532.500000	7986.500000	1.578506
954.690000	532.000000	9303.000000	1.578460
955.190000	531.500000	10938.000000	1.578414
955.690000	531.000000	12965.500000	1.578368
956.190000	530.500000	14531.500000	1.578322
956.690000	530.000000	12798.500000	1.578276
957.190000	529.500000	8430.000000	1.578230
957.690000	529.000000	6158.000000	1.578184
958.190000	528.500000	5551.500000	1.578138
958.690000	528.000000	5420.000000	1.578092
959.190000	527.500000	5341.000000	1.578046
959.690000	527.000000	5330.500000	1.578000
960.190000	526.500000	5304.500000	1.577954
960.690000	526.000000	5295.000000	1.577908
961.190000	525.500000	5309.500000	1.577862
961.690000	525.000000	5246.500000	1.577816
962.190000	524.500000	5311.500000	1.577770
962.690000	524.000000	5380.500000	1.577724
963.190000	523.500000	5352.500000	1.577678
963.690000	523.000000	5328.500000	1.577632
964.190000	522.500000	5323.000000	1.577586
964.690000	522.000000	5314.500000	1.577540
965.190000	521.500000	5393.500000	1.577494
965.690000	521.000000	5398.500000	1.577448
966.190000	520.500000	5266.500000	1.577402
966.690000	520.000000	5266.500000	1.577356
967.190000	519.500000	5317.500000	1.577310
967.690000	519.000000	5301.000000	1.577264
968.190000	518.500000	5256.000000	1.577218
968.690000	518.000000	5325.000000	1.577172
969.190000	517.500000	5362.500000	1.577126
969.690000	517.000000	5313.000000	1.577080
970.190000	516.500000	5387.500000	1.577034
970.690000	516.000000	5392.500000	1.576988
971.190000	515.500000	5401.500000	1.576942
971.690000	515.000000	5435.500000	1.576896
972.190000	514.500000	5409.500000	1.576850
972.690000	514.000000	5419.000000	1.576804
973.190000	513.500000	5370.000000	1.576758
973.690000	513.000000	5521.000000	1.576712
974.190000	512.500000	5442.000000	1.576666
974.690000	512.000000	5475.000000	1.576620
975.190000	511.500000	5529.500000	1.576574
975.690000	511.000000	5472.000000	1.576528
976.190000	510.500000	5426.500000	1.576481
976.690000	510.000000	5532.000000	1.576435
977.190000	509.500000	5497.500000	1.576389
977.690000	509.000000	5542.500000	1.576343
978.190000	508.500000	5523.000000	1.576297
978.690000	508.000000	5466.000000	1.576251
979.190000	507.500000	5482.500000	1.576205
979.690000	507.000000	5552.000000	1.576159
980.190000	506.500000	5489.500000	1.576113
980.690000	506.000000	5543.500000	1.576067
981.190000	505.500000	5460.500000	1.576021
981.690000	505.000000	5411.000000	1.575975
982.190000	504.500000	5425.500000	1.575929
982.690000	504.000000	5437.000000	1.575883
983.190000	503.500000	5362.500000	1.575837
983.690000	503.000000	5400.500000	1.575791
984.190000	502.500000	5428.500000	1.575745
984.690000	502.000000	5357.000000	1.575699
985.190000	501.500000	5387.000000	1.575653
985.690000	501.000000	5357.000000	1.575607
986.190000	500.500000	5441.500000	1.575561
986.690000	500.000000	5404.000000	1.575515
987.190000	499.500000	5429.500000	1.575469
987.690000	499.000000	5416.500000	1.575423
988.190000	498.500000	5500.500000	1.575377
988.690000	498.000000	5524.500000	1.575331
989.190000	497.500000	5693.500000	1.575285
989.690000	497.000000	6078.000000	1.575239
990.190000	496.500000	6623.500000	1.575193
990.690000	496.000000	7441.500000	1.575147
991.190000	495.500000	8034.000000	1.575101
991.690000	495.000000	7804.500000	1.575055
992.190000	494.500000	6681.000000	1.575009
992.690000	494.000000	5709.000000	1.574963
993.190000	493.500000	5359.000000	1.574917
993.690000	493.000000	5261.000000	1.574871
994.190000	492.500000	5218.000000	1.574825
994.690000	492.000000	5173.000000	1.574779
995.190000	491.500000	5188.000000	1.574733
995.690000	491.000000	5213.000000	1.574687
996.190000	490.500000	5256.000000	1.574641
996.690000	490.000000	5393.000000	1.574595
997.190000	489.500000	5529.500000	1.574549
997.690000	489.000000	5782.500000	1.574503
998.190000	488.500000	6303.000000	1.574457
998.690000	488.000000	7279.000000	1.574411
999.190000	487.500000	8337.500000	1.574364
999.690000	487.000000	9004.500000	1.574318
1000.190000	486.500000	8589.500000	1.574272
1000.690000	486.000000	6906.000000	1.574226
1001.190000	485.500000	5694.000000	1.574180
1001.690000	485.000000	5281.000000	1.574134
1002.190000	484.500000	5185.000000	1.574088
1002.690000	484.000000	5114.000000	1.574042
1003.190000	483.500000	5069.500000	1.573996
1003.690000	483.000000	5100.000000	1.573950
1004.190000	482.500000	5070.000000	1.573904
1004.690000	482.000000	5097.500000	1.573858
1005.190000	481.500000	5168.500000	1.573812
1005.690000	481.000000	5221.500000	1.573766
1006.190000	480.500000	5210.500000	1.573720
1006.690000	480.000000	5215.000000	1.573674
1007.190000	479.500000	5230.000000	1.573628
1007.690000	479.000000	5193.500000	1.573582
1008.190000	478.500000	5259.000000	1.573536
1008.690000	478.000000	5195.000000	1.573490
1009.190000	477.500000	5182.000000	1.573444
1009.690000	477.000000	5256.000000	1.573398
1010.190000	476.500000	5207.000000	1.573352
1010.690000	476.000000	5275.500000	1.573306
1011.190000	475.500000	5219.500000	1.573260
1011.690000	475.000000	5405.000000	1.573214
1012.190000	474.500000	5485.500000	1.573168
1012.690000	474.000000	5497.500000	1.573122
1013.190000	473.500000	5615.000000	1.573076
1013.690000	473.000000	5626.000000	1.573030
1014.190000	472.500000	5588.000000	1.572984
1014.690000	472.000000	5682.000000	1.572938
1015.190000	471.500000	5695.500000	1.572892
1015.690000	471.000000	5665.500000	1.572846
1016.190000	470.500000	5645.000000	1.572800
1016.690000	470.000000	5689.000000	1.572754
1017.190000	469.500000	5609.500000	1.572708
1017.690000	469.000000	5668.000000	1.572662
1018.190000	468.500000	5549.500000	1.572616
1018.690000	468.000000	5506.000000	1.572570
1019.190000	467.500000	5490.500000	1.572524
1019.690000	467.000000	5500.000000	1.572478
1020.190000	466.500000	5516.500000	1.572432
1020.690000	466.000000	5562.500000	1.572386
1021.190000	465.500000	5626.000000	1.572340
1021.690000	465.000000	5597.000000	1.572294
1022.190000	464.500000	5611.500000	1.572247
1022.690000	464.000000	5645.000000	1.572201
1023.190000	463.500000	5631.000000	1.572155
1023.690000	463.000000	5446.000000	1.572109
1024.190000	462.500000	5234.000000	1.572063
1024.690000	462.000000	5131.500000	1.572017
1025.190000	461.500000	5002.500000	1.571971
1025.690000	461.000000	4848.000000	1.571925
1026.190000	460.500000	4703.500000	1.571879
1026.690000	460.000000	4639.000000	1.571833
1027.190000	459.500000	4594.500000	1.571787
1027.690000	459.000000	4488.500000	1.571741
1028.190000	458.500000	4431.500000	1.571695
1028.690000	458.000000	4424.500000	1.571649
1029.190000	457.500000	4394.000000	1.571603
1029.690000	457.000000	4465.000000	1.571557
1030.190000	456.500000	4525.000000	1.571511
1030.690000	456.000000	4756.000000	1.571465
1031.190000	455.500000	5118.500000	1.571419
1031.690000	455.000000	5784.500000	1.571373
1032.190000	454.500000	7182.000000	1.571327
1032.690000	454.000000	10434.500000	1.571281
1033.190000	453.500000	15967.500000	1.571235
1033.690000	453.000000	23337.500000	1.571189
1034.190000	452.500000	28993.500000	1.571143
1034.690000	452.000000	25782.000000	1.571097
1035.190000	451.500000	13028.000000	1.571057
1035.690000	451.000000	5262.000000	1.571028
1036.190000	450.500000	3455.500000	1.570998
1036.690000	450.000000	3040.500000	1.570968
1037.190000	449.500000	2890.500000	1.570939
1037.690000	449.000000	3041.500000	1.570909
1038.190000	448.500000	3355.000000	1.570879
1038.690000	448.000000	3960.500000	1.570850
1039.190000	447.500000	5037.500000	1.570820
1039.690000	447.000000	7283.000000	1.570791
1040.190000	446.500000	11829.000000	1.570761
1040.690000	446.000000	19677.000000	1.570731
1041.190000	445.500000	30298.500000	1.570702
1041.690000	445.000000	39126.000000	1.570672
1042.190000	444.500000	36396.000000	1.570642
1042.690000	444.000000	18368.500000	1.570613
1043.190000	443.500000	5988.500000	1.570583
1043.690000	443.000000	2765.000000	1.570553
1044.190000	442.500000	1913.000000	1.570524
1044.690000	442.000000	1501.000000	1.570494
1045.190000	441.500000	1324.500000	1.570464
1045.690000	441.000000	1193.500000	1.570435
1046.190000	440.500000	1114.000000	1.570405
1046.690000	440.000000	1067.500000	1.570375
1047.190000	439.500000	1017.000000	1.570346
1047.690000	439.000000	995.000000	1.570316
1048.190000	438.500000	943.000000	1.570287
1048.690000	438.000000	918.000000	1.570257
1049.190000	437.500000	890.500000	1.570227
1049.690000	437.000000	888.000000	1.570198
1050.190000	436.500000	832.000000	1.570168
1050.690000	436.000000	858.500000	1.570138
1051.190000	435.500000	868.000000	1.570109
1051.690000	435.000000	823.500000	1.570079
1052.190000	434.500000	857.000000	1.570049
1052.690000	434.000000	843.000000	1.570020
1053.190000	433.500000	806.500000	1.569990
1053.690000	433.000000	855.000000	1.569960
1054.190000	432.500000	830.000000	1.569931
1054.690000	432.000000	863.500000	1.569901
1055.190000	431.500000	793.000000	1.569872
1055.690000	431.000000	796.500000	1.569842
1056.190000	430.500000	809.500000	1.569812
1056.690000	430.000000	825.500000	1.569783
1057.190000	429.500000	804.000000	1.569753
1057.690000	429.000000	835.000000	1.569723
1058.190000	428.500000	788.000000	1.569694
1058.690000	428.000000	803.500000	1.569664
1059.190000	427.500000	808.000000	1.569634
1059.690000	427.000000	804.500000	1.569605
1060.190000	426.500000	794.000000	1.569575
1060.690000	426.000000	792.000000	1.569545
1061.190000	425.500000	817.500000	1.569516
1061.690000	425.000000	810.000000	1.569486
1062.190000	424.500000	813.000000	1.569456
1062.690000	424.000000	814.000000	1.569427
1063.190000	423.500000	801.000000	1.569397
1063.690000	423.000000	797.000000	1.569368
1064.190000	422.500000	795.500000	1.569338
1064.690000	422.000000	801.000000	1.569308
1065.190000	421.500000	808.000000	1.569279
1065.690000	421.000000	803.500000	1.569249
1066.190000	420.500000	821.500000	1.569219
1066.690000	420.000000	799.500000	1.569190
1067.190000	419.500000	814.500000	1.569160
1067.690000	419.000000	793.500000	1.569130
1068.190000	418.500000	803.500000	1.569101
1068.690000	418.000000	812.500000	1.569071
1069.190000	417.500000	772.500000	1.569041
1069.690000	417.000000	794.000000	1.569012
1070.190000	416.500000	813.000000	1.568982
1070.690000	416.000000	806.500000	1.568953
1071.190000	415.500000	804.000000	1.568923
1071.690000	415.000000	788.500000	1.568893
1072.190000	414.500000	798.500000	1.568864
1072.690000	414.000000	821.500000	1.568834
1073.190000	413.500000	790.500000	1.568804
1073.690000	413.000000	804.500000	1.568775
1074.190000	412.500000	827.000000	1.568745
1074.690000	412.000000	802.500000	1.568715
1075.190000	411.500000	789.500000	1.568686
1075.690000	411.000000	823.500000	1.568656
1076.190000	410.500000	821.500000	1.568626
1076.690000	410.000000	794.000000	1.568597
1077.190000	409.500000	815.000000	1.568567
1077.690000	409.000000	813.500000	1.568537
1078.190000	408.500000	787.000000	1.568508
1078.690000	408.000000	803.000000	1.568478
1079.190000	407.500000	796.000000	1.568449
1079.690000	407.000000	816.000000	1.568419
1080.190000	406.500000	806.500000	1.568389
1080.690000	406.000000	807.000000	1.568360
1081.190000	405.500000	815.000000	1.568330
1081.690000	405.000000	799.500000	1.568300
1082.190000	404.500000	775.500000	1.568271
1082.690000	404.000000	795.000000	1.568241
1083.190000	403.500000	819.500000	1.568211
1083.690000	403.000000	813.000000	1.568182
1084.190000	402.500000	774.000000	1.568152
1084.690000	402.000000	842.500000	1.568122
1085.190000	401.500000	818.500000	1.568093
1085.690000	401.000000	835.500000	1.568063
1086.190000	400.500000	828.500000	1.568034
1086.690000	400.000000	833.000000	1.568004
1087.190000	399.500000	854.000000	1.567974
1087.690000	399.000000	808.500000	1.567945
1088.190000	398.500000	827.000000	1.567915
1088.690000	398.000000	808.500000	1.567885
1089.190000	397.500000	844.000000	1.567856
1089.690000	397.000000	829.500000	1.567826
1090.190000	396.500000	839.000000	1.567796
1090.690000	396.000000	809.000000	1.567767
1091.190000	395.500000	853.500000	1.567737
1091.690000	395.000000	814.500000	1.567707
1092.190000	394.500000	821.000000	1.567678
1092.690000	394.000000	806.500000	1.567648
1093.190000	393.500000	830.000000	1.567618
1093.690000	393.000000	817.500000	1.567589
1094.190000	392.500000	819.500000	1.567559
1094.690000	392.000000	816.000000	1.567530
1095.190000	391.500000	813.000000	1.567500
1095.690000	391.000000	795.500000	1.567470
1096.190000	390.500000	817.000000	1.567441
1096.690000	390.000000	813.500000	1.567411
1097.190000	389.500000	809.500000	1.567381
1097.690000	389.000000	830.000000	1.567352
1098.190000	388.500000	807.500000	1.567322
1098.690000	388.000000	786.000000	1.567292
1099.190000	387.500000	822.500000	1.567263
1099.690000	387.000000	794.000000	1.567233
1100.190000	386.500000	845.000000	1.567203
1100.690000	386.000000	817.000000	1.567174
1101.190000	385.500000	805.500000	1.567144
1101.690000	385.000000	790.500000	1.567115
1102.190000	384.500000	841.500000	1.567085
1102.690000	384.000000	817.500000	1.567055
1103.190000	383.500000	825.000000	1.567026
1103.690000	383.000000	819.000000	1.566996
1104.190000	382.500000	790.000000	1.566966
1104.690000	382.000000	809.500000	1.566937
1105.190000	381.500000	778.500000	1.566907
1105.690000	381.000000	826.000000	1.566877
1106.190000	380.500000	814.000000	1.566848
1106.690000	380.000000	819.500000	1.566818
1107.190000	379.500000	824.000000	1.566788
1107.690000	379.000000	837.000000	1.566759
1108.190000	378.500000	815.500000	1.566729
1108.690000	378.000000	825.500000	1.566699
1109.190000	377.500000	795.500000	1.566670
1109.690000	377.000000	847.500000	1.566640
1110.190000	376.500000	839.500000	1.566611
1110.690000	376.000000	818.500000	1.566581
1111.190000	375.500000	831.500000	1.566551
1111.690000	375.000000	837.500000	1.566522
1112.190000	374.500000	807.500000	1.566492
1112.690000	374.000000	820.500000	1.566462
1113.190000	373.500000	814.000000	1.566433
1113.690000	373.000000	825.500000	1.566403
1114.190000	372.500000	862.000000	1.566373
1114.690000	372.000000	841.500000	1.566344
1115.190000	371.500000	835.000000	1.566314
1115.690000	371.000000	823.000000	1.566284
1116.190000	370.500000	863.500000	1.566255
1116.690000	370.000000	806.000000	1.566225
1117.190000	369.500000	860.500000	1.566196
1117.690000	369.000000	791.000000	1.566166
1118.190000	368.500000	795.000000	1.566136
1118.690000	368.000000	815.000000	1.566107
1119.190000	367.500000	824.500000	1.566077
1119.690000	367.000000	771.500000	1.566047
1120.190000	366.500000	807.500000	1.566018
1120.690000	366.000000	817.000000	1.565988
1121.190000	365.500000	861.500000	1.565958
1121.690000	365.000000	844.500000	1.565929
1122.190000	364.500000	833.000000	1.565899
1122.690000	364.000000	804.500000	1.565869
1123.190000	363.500000	823.500000	1.565840
1123.690000	363.000000	802.000000	1.565810
1124.190000	362.500000	815.500000	1.565780
1124.690000	362.000000	850.000000	1.565751
1125.190000	361.500000	807.500000	1.565721
1125.690000	361.000000	818.500000	1.565692
1126.190000	360.500000	856.500000	1.565662
1126.690000	360.000000	811.000000	1.565632
1127.190000	359.500000	805.500000	1.565603
1127.690000	359.000000	863.000000	1.565573
1128.190000	358.500000	838.500000	1.565543
1128.690000	358.000000	831.500000	1.565514
1129.190000	357.500000	834.500000	1.565484
1129.690000	357.000000	826.000000	1.565454
1130.190000	356.500000	821.000000	1.565425
1130.690000	356.000000	819.500000	1.565395
1131.190000	355.500000	806.500000	1.565365
1131.690000	355.000000	846.000000	1.565336
1132.190000	354.500000	800.500000	1.565306
1132.690000	354.000000	811.000000	1.565277
1133.190000	353.500000	852.000000	1.565247
1133.690000	353.000000	844.500000	1.565217
1134.190000	352.500000	856.000000	1.565188
1134.690000	352.000000	848.000000	1.565158
1135.190000	351.500000	829.500000	1.565128
1135.690000	351.000000	845.500000	1.565099
1136.190000	350.500000	858.500000	1.565069
1136.690000	350.000000	865.500000	1.565039
1137.190000	349.500000	853.000000	1.565010
1137.690000	349.000000	861.000000	1.564980
1138.190000	348.500000	844.000000	1.564950
1138.690000	348.000000	830.500000	1.564921
1139.190000	347.500000	870.000000	1.564891
1139.690000	347.000000	881.500000	1.564862
1140.190000	346.500000	851.500000	1.564832
1140.690000	346.000000	818.500000	1.564802
1141.190000	345.500000	842.000000	1.564773
1141.690000	345.000000	853.500000	1.564743
1142.190000	344.500000	838.500000	1.564713
1142.690000	344.000000	815.500000	1.564684
1143.190000	343.500000	816.500000	1.564654
1143.690000	343.000000	805.500000	1.564624
1144.190000	342.500000	846.500000	1.564595
1144.690000	342.000000	866.500000	1.564565
1145.190000	341.500000	840.500000	1.564535
1145.690000	341.000000	848.500000	1.564506
1146.190000	340.500000	858.000000	1.564476
1146.690000	340.000000	815.500000	1.564446
1147.190000	339.500000	857.500000	1.564417
1147.690000	339.000000	829.500000	1.564387
1148.190000	338.500000	862.500000	1.564358
1148.690000	338.000000	868.000000	1.564328
1149.190000	337.500000	851.000000	1.564298
1149.690000	337.000000	880.000000	1.564269
1150.190000	336.500000	857.000000	1.564239
1150.690000	336.000000	897.000000	1.564209
1151.190000	335.500000	841.000000	1.564180
1151.690000	335.000000	868.500000	1.564150
1152.190000	334.500000	837.000000	1.564120
1152.690000	334.000000	867.000000	1.564091
1153.190000	333.500000	872.500000	1.564061
1153.690000	333.000000	845.500000	1.564031
1154.190000	332.500000	858.000000	1.564002
1154.690000	332.000000	858.500000	1.563972
1155.190000	331.500000	878.500000	1.563943
1155.690000	331.000000	819.000000	1.563913
1156.190000	330.500000	855.500000	1.563883
1156.690000	330.000000	841.000000	1.563854
1157.190000	329.500000	844.500000	1.563824
1157.690000	329.000000	841.000000	1.563794
1158.190000	328.500000	841.000000	1.563765
1158.690000	328.000000	870.000000	1.563735
1159.190000	327.500000	861.000000	1.563705
1159.690000	327.000000	906.500000	1.563676
1160.190000	326.500000	856.000000	1.563646
1160.690000	326.000000	847.000000	1.563616
1161.190000	325.500000	894.500000	1.563587
1161.690000	325.000000	868.500000	1.563557
1162.190000	324.500000	878.000000	1.563527
1162.690000	324.000000	879.500000	1.563498
1163.190000	323.500000	852.500000	1.563468
1163.690000	323.000000	880.000000	1.563439
1164.190000	322.500000	871.500000	1.563409
1164.690000	322.000000	870.500000	1.563379
1165.190000	321.500000	857.000000	1.563350
1165.690000	321.000000	871.000000	1.563320
1166.190000	320.500000	870.000000	1.563290
1166.690000	320.000000	866.500000	1.563261
1167.190000	319.500000	890.500000	1.563231
1167.690000	319.000000	917.500000	1.563201
1168.190000	318.500000	898.500000	1.563172
1168.690000	318.000000	875.500000	1.563142
1169.190000	317.500000	902.000000	1.563112
1169.690000	317.000000	873.500000	1.563083
1170.190000	316.500000	867.000000	1.563053
1170.690000	316.000000	908.500000	1.563024
1171.190000	315.500000	908.000000	1.562994
1171.690000	315.000000	904.000000	1.562964
1172.190000	314.500000	894.500000	1.562935
1172.690000	314.000000	886.500000	1.562905
1173.190000	313.500000	848.500000	1.562875
1173.690000	313.000000	887.000000	1.562846
1174.190000	312.500000	908.000000	1.562816
1174.690000	312.000000	865.500000	1.562786
1175.190000	311.500000	863.000000	1.562757
1175.690000	311.000000	900.500000	1.562727
1176.190000	310.500000	860.000000	1.562697
1176.690000	310.000000	889.000000	1.562668
1177.190000	309.500000	878.000000	1.562638
1177.690000	309.000000	884.000000	1.562608
1178.190000	308.500000	911.000000	1.562579
1178.690000	308.000000	875.500000	1.562549
1179.190000	307.500000	864.000000	1.562520
1179.690000	307.000000	911.000000	1.562490
1180.190000	306.500000	936.500000	1.562460
1180.690000	306.000000	920.000000	1.562431
1181.190000	305.500000	888.500000	1.562401
1181.690000	305.000000	893.000000	1.562371
1182.190000	304.500000	909.500000	1.562342
1182.690000	304.000000	875.500000	1.562312
1183.190000	303.500000	888.000000	1.562282
1183.690000	303.000000	885.000000	1.562253
1184.190000	302.500000	898.500000	1.562223
1184.690000	302.000000	898.000000	1.562193
1185.190000	301.500000	901.500000	1.562164
1185.690000	301.000000	902.500000	1.562134
1186.190000	300.500000	902.500000	1.562105
1186.690000	300.000000	860.500000	1.562075
1187.190000	299.500000	865.000000	1.562045
1187.690000	299.000000	898.500000	1.562016
1188.190000	298.500000	907.000000	1.561986
1188.690000	298.000000	876.000000	1.561956
1189.190000	297.500000	907.500000	1.561927
1189.690000	297.000000	882.500000	1.561897
1190.190000	296.500000	885.000000	1.561867
1190.690000	296.000000	869.500000	1.561838
1191.190000	295.500000	900.500000	1.561808
1191.690000	295.000000	918.500000	1.561778
1192.190000	294.500000	894.500000	1.561749
1192.690000	294.000000	904.500000	1.561719
1193.190000	293.500000	904.500000	1.561689
1193.690000	293.000000	904.000000	1.561660
1194.190000	292.500000	888.500000	1.561630
1194.690000	292.000000	877.500000	1.561601
1195.190000	291.500000	880.500000	1.561571
1195.690000	291.000000	929.000000	1.561541
1196.190000	290.500000	959.000000	1.561512
1196.690000	290.000000	991.500000	1.561482
1197.190000	289.500000	951.000000	1.561452
1197.690000	289.000000	957.500000	1.561423
1198.190000	288.500000	990.000000	1.561393
1198.690000	288.000000	982.500000	1.561363
1199.190000	287.500000	1020.000000	1.561334
1199.690000	287.000000	1102.500000	1.561304
1200.190000	286.500000	1150.000000	1.561274
1200.690000	286.000000	1236.500000	1.561245
1201.190000	285.500000	1329.000000	1.561215
1201.690000	285.000000	1421.500000	1.561186
1202.190000	284.500000	1284.500000	1.561156
1202.690000	284.000000	1044.000000	1.561126
1203.190000	283.500000	972.000000	1.561097
1203.690000	283.000000	957.000000	1.561067
1204.190000	282.500000	923.000000	1.561037
1204.690000	282.000000	880.500000	1.561008
1205.190000	281.500000	845.500000	1.560978
1205.690000	281.000000	867.500000	1.560948
1206.190000	280.500000	907.000000	1.560919
1206.690000	280.000000	894.500000	1.560889
1207.190000	279.500000	870.000000	1.560859
1207.690000	279.000000	869.500000	1.560830
1208.190000	278.500000	890.000000	1.560800
1208.690000	278.000000	901.500000	1.560770
1209.190000	277.500000	872.500000	1.560741
1209.690000	277.000000	883.000000	1.560711
1210.190000	276.500000	881.000000	1.560682
1210.690000	276.000000	830.000000	1.560652
1211.190000	275.500000	856.500000	1.560622
1211.690000	275.000000	872.500000	1.560593
1212.190000	274.500000	871.500000	1.560563
1212.690000	274.000000	903.000000	1.560533
1213.190000	273.500000	894.000000	1.560504
1213.690000	273.000000	896.500000	1.560474
1214.190000	272.500000	893.000000	1.560444
1214.690000	272.000000	881.500000	1.560415
1215.190000	271.500000	895.500000	1.560385
1215.690000	271.000000	910.500000	1.560355
1216.190000	270.500000	873.000000	1.560326
1216.690000	270.000000	924.500000	1.560296
1217.190000	269.500000	973.500000	1.560267
1217.690000	269.000000	920.500000	1.560237
1218.190000	268.500000	942.500000	1.560207
1218.690000	268.000000	926.500000	1.560178
1219.190000	267.500000	903.500000	1.560148
1219.690000	267.000000	923.000000	1.560118
1220.190000	266.500000	903.500000	1.560089
1220.690000	266.000000	895.500000	1.560059
1221.190000	265.500000	927.000000	1.560029
1221.690000	265.000000	905.000000	1.560000
1222.190000	264.500000	931.000000	1.559970
1222.690000	264.000000	882.000000	1.559940
1223.190000	263.500000	911.500000	1.559911
1223.690000	263.000000	902.500000	1.559881
1224.190000	262.500000	891.000000	1.559852
1224.690000	262.000000	908.500000	1.559822
1225.190000	261.500000	924.000000	1.559792
1225.690000	261.000000	906.000000	1.559763
1226.190000	260.500000	913.000000	1.559733
1226.690000	260.000000	895.000000	1.559703
1227.190000	259.500000	929.500000	1.559674
1227.690000	259.000000	907.000000	1.559644
1228.190000	258.500000	917.000000	1.559614
1228.690000	258.000000	921.500000	1.559585
1229.190000	257.500000	924.000000	1.559555
1229.690000	257.000000	925.500000	1.559525
1230.190000	256.500000	936.000000	1.559496
1230.690000	256.000000	935.000000	1.559466
1231.190000	255.500000	909.000000	1.559436
1231.690000	255.000000	920.000000	1.559407
1232.190000	254.500000	917.500000	1.559377
1232.690000	254.000000	948.000000	1.559348
1233.190000	253.500000	913.500000	1.559318
1233.690000	253.000000	936.000000	1.559288
1234.190000	252.500000	923.500000	1.559259
1234.690000	252.000000	894.000000	1.559229
1235.190000	251.500000	905.500000	1.559199
1235.690000	251.000000	925.000000	1.559170
1236.190000	250.500000	881.500000	1.559128
1236.690000	250.000000	893.500000	1.559076
1237.190000	249.500000	902.000000	1.559023
1237.690000	249.000000	912.000000	1.558970
1238.190000	248.500000	908.000000	1.558917
1238.690000	248.000000	917.000000	1.558865
1239.190000	247.500000	917.500000	1.558812
1239.690000	247.000000	918.000000	1.558759
1240.190000	246.500000	894.500000	1.558706
1240.690000	246.000000	928.000000	1.558654
1241.190000	245.500000	926.500000	1.558601
1241.690000	245.000000	963.000000	1.558548
1242.190000	244.500000	935.000000	1.558495
1242.690000	244.000000	901.000000	1.558443
1243.190000	243.500000	924.500000	1.558390
1243.690000	243.000000	942.500000	1.558337
1244.190000	242.500000	922.000000	1.558284
1244.690000	242.000000	904.500000	1.558232
1245.190000	241.500000	924.000000	1.558179
1245.690000	241.000000	954.500000	1.558126
1246.190000	240.500000	901.000000	1.558073
1246.690000	240.000000	915.000000	1.558020
1247.190000	239.500000	923.500000	1.557968
1247.690000	239.000000	957.000000	1.557915
1248.190000	238.500000	916.000000	1.557862
1248.690000	238.000000	930.000000	1.557809
1249.190000	237.500000	958.500000	1.557757
1249.690000	237.000000	936.000000	1.557704
1250.190000	236.500000	923.500000	1.557651
1250.690000	236.000000	988.000000	1.557598
1251.190000	235.500000	951.000000	1.557546
1251.690000	235.000000	956.500000	1.557493
1252.190000	234.500000	923.500000	1.557440
1252.690000	234.000000	940.500000	1.557387
1253.190000	233.500000	933.000000	1.557335
1253.690000	233.000000	943.000000	1.557282
1254.190000	232.500000	911.000000	1.557229
1254.690000	232.000000	931.500000	1.557176
1255.190000	231.500000	907.500000	1.557124
1255.690000	231.000000	931.500000	1.557071
1256.190000	230.500000	945.000000	1.557018
1256.690000	230.000000	938.500000	1.556965
1257.190000	229.500000	947.500000	1.556913
1257.690000	229.000000	965.500000	1.556860
1258.190000	228.500000	920.000000	1.556807
1258.690000	228.000000	913.500000	1.556754
1259.190000	227.500000	969.500000	1.556701
1259.690000	227.000000	978.000000	1.556649
1260.190000	226.500000	922.000000	1.556596
1260.690000	226.000000	978.000000	1.556543
1261.190000	225.500000	931.500000	1.556490
1261.690000	225.000000	944.000000	1.556438
1262.190000	224.500000	957.000000	1.556385
1262.690000	224.000000	964.500000	1.556332
1263.190000	223.500000	924.000000	1.556279
1263.690000	223.000000	960.500000	1.556227
1264.190000	222.500000	963.000000	1.556174
1264.690000	222.000000	956.500000	1.556121
1265.190000	221.500000	964.500000	1.556068
1265.690000	221.000000	963.500000	1.556016
1266.190000	220.500000	933.000000	1.555963
1266.690000	220.000000	929.000000	1.555910
1267.190000	219.500000	958.500000	1.555857
1267.690000	219.000000	910.000000	1.555805
1268.190000	218.500000	951.000000	1.555752
1268.690000	218.000000	956.500000	1.555699
1269.190000	217.500000	968.500000	1.555646
1269.690000	217.000000	942.000000	1.555593
1270.190000	216.500000	970.000000	1.555541
1270.690000	216.000000	950.500000	1.555488
1271.190000	215.500000	955.000000	1.555435
1271.690000	215.000000	955.500000	1.555382
1272.190000	214.500000	979.500000	1.555330
1272.690000	214.000000	978.000000	1.555277
1273.190000	213.500000	935.500000	1.555224
1273.690000	213.000000	972.000000	1.555171
1274.190000	212.500000	966.000000	1.555119
1274.690000	212.000000	950.000000	1.555066
1275.190000	211.500000	991.500000	1.555013
1275.690000	211.000000	954.000000	1.554960
1276.190000	210.500000	964.500000	1.554908
1276.690000	210.000000	962.500000	1.554855
1277.190000	209.500000	963.000000	1.554802
1277.690000	209.000000	1029.000000	1.554749
1278.190000	208.500000	956.500000	1.554697
1278.690000	208.000000	979.500000	1.554644
1279.190000	207.500000	1009.000000	1.554591
1279.690000	207.000000	962.000000	1.554538
1280.190000	206.500000	970.000000	1.554486
1280.690000	206.000000	982.000000	1.554433
1281.190000	205.500000	962.500000	1.554380
1281.690000	205.000000	956.500000	1.554327
1282.190000	204.500000	946.000000	1.554274
1282.690000	204.000000	991.000000	1.554222
1283.190000	203.500000	976.000000	1.554169
1283.690000	203.000000	991.000000	1.554116
1284.190000	202.500000	991.000000	1.554063
1284.690000	202.000000	979.000000	1.554011
1285.190000	201.500000	1000.500000	1.553958
1285.690000	201.000000	1038.500000	1.553905
1286.190000	200.500000	989.500000	1.553852
1286.690000	200.000000	1021.500000	1.553800
1287.190000	199.500000	1023.500000	1.553747
1287.690000	199.000000	1019.500000	1.553694
1288.190000	198.500000	1057.500000	1.553641
1288.690000	198.000000	1032.500000	1.553589
1289.190000	197.500000	1014.500000	1.553536
1289.690000	197.000000	1011.500000	1.553483
1290.190000	196.500000	986.500000	1.553430
1290.690000	196.000000	992.000000	1.553378
1291.190000	195.500000	1024.000000	1.553325
1291.690000	195.000000	978.500000	1.553272
1292.190000	194.500000	1005.000000	1.553219
1292.690000	194.000000	991.000000	1.553166
1293.190000	193.500000	1027.500000	1.553114
1293.690000	193.000000	977.000000	1.553061
1294.190000	192.500000	954.000000	1.553008
1294.690000	192.000000	989.500000	1.552955
1295.190000	191.500000	1000.500000	1.552903
1295.690000	191.000000	995.000000	1.552850
1296.190000	190.500000	1005.000000	1.552797
1296.690000	190.000000	1006.500000	1.552744
1297.190000	189.500000	977.500000	1.552692
1297.690000	189.000000	988.500000	1.552639
1298.190000	188.500000	972.500000	1.552586
1298.690000	188.000000	987.000000	1.552533
1299.190000	187.500000	1005.000000	1.552481
1299.690000	187.000000	1028.000000	1.552428
1300.190000	186.500000	1033.000000	1.552375
1300.690000	186.000000	1038.000000	1.552322
1301.190000	185.500000	1000.500000	1.552270
1301.690000	185.000000	996.500000	1.552217
1302.190000	184.500000	1027.500000	1.552164
1302.690000	184.000000	993.500000	1.552111
1303.190000	183.500000	1027.500000	1.552059
1303.690000	183.000000	1009.500000	1.552006
1304.190000	182.500000	1033.000000	1.551953
1304.690000	182.000000	994.000000	1.551900
1305.190000	181.500000	995.500000	1.551847
1305.690000	181.000000	1002.500000	1.551795
1306.190000	180.500000	1008.000000	1.551742
1306.690000	180.000000	1001.500000	1.551689
1307.190000	179.500000	1028.500000	1.551636
1307.690000	179.000000	1017.000000	1.551584
1308.190000	178.500000	1008.000000	1.551531
1308.690000	178.000000	1041.000000	1.551478
1309.190000	177.500000	1019.000000	1.551425
1309.690000	177.000000	1004.000000	1.551373
1310.190000	176.500000	1012.000000	1.551320
1310.690000	176.000000	1021.000000	1.551267
1311.190000	175.500000	1022.500000	1.551214
1311.690000	175.000000	989.000000	1.551162
1312.190000	174.500000	1003.500000	1.551109
1312.690000	174.000000	1002.500000	1.551056
1313.190000	173.500000	1028.500000	1.551003
1313.690000	173.000000	1003.500000	1.550951
1314.190000	172.500000	1016.500000	1.550898
1314.690000	172.000000	1030.000000	1.550845
1315.190000	171.500000	1025.000000	1.550792
1315.690000	171.000000	1019.500000	1.550739
1316.190000	170.500000	988.000000	1.550687
1316.690000	170.000000	1034.000000	1.550634
1317.190000	169.500000	1050.500000	1.550581
1317.690000	169.000000	1031.000000	1.550528
1318.190000	168.500000	1060.500000	1.550476
1318.690000	168.000000	1026.500000	1.550423
1319.190000	167.500000	1050.000000	1.550370
1319.690000	167.000000	998.000000	1.550317
1320.190000	166.500000	1049.500000	1.550265
1320.690000	166.000000	1057.500000	1.550212
1321.190000	165.500000	1031.000000	1.550159
1321.690000	165.000000	1035.500000	1.550106
1322.190000	164.500000	1036.500000	1.550054
1322.690000	164.000000	1045.000000	1.550001
1323.190000	163.500000	1033.500000	1.549948
1323.690000	163.000000	1024.500000	1.549895
1324.190000	162.500000	1032.500000	1.549843
1324.690000	162.000000	1060.000000	1.549790
1325.190000	161.500000	1005.000000	1.549737
1325.690000	161.000000	1042.000000	1.549684
1326.190000	160.500000	1002.000000	1.549632
1326.690000	160.000000	1052.000000	1.549579
1327.190000	159.500000	1038.500000	1.549526
1327.690000	159.000000	1024.000000	1.549473
1328.190000	158.500000	1044.000000	1.549420
1328.690000	158.000000	1051.000000	1.549368
1329.190000	157.500000	1068.500000	1.549315
1329.690000	157.000000	1041.500000	1.549038
1330.190000	156.500000	1009.500000	1.548517
1330.690000	156.000000	1069.500000	1.547996
1331.190000	155.500000	1052.000000	1.547475
1331.690000	155.000000	1089.000000	1.546954
1332.190000	154.500000	1052.500000	1.546434
1332.690000	154.000000	1029.500000	1.545913
1333.190000	153.500000	1053.000000	1.545392
1333.690000	153.000000	1080.000000	1.544871
1334.190000	152.500000	1065.000000	1.544350
1334.690000	152.000000	1093.500000	1.543830
1335.190000	151.500000	1081.000000	1.543309
1335.690000	151.000000	1068.500000	1.542788
1336.190000	150.500000	1104.000000	1.542267
1336.690000	150.000000	1096.500000	1.541747
1337.190000	149.500000	1090.000000	1.541226
1337.690000	149.000000	1051.000000	1.540705
1338.190000	148.500000	1093.500000	1.540184
1338.690000	148.000000	1082.500000	1.539663
1339.190000	147.500000	1098.500000	1.539143
1339.690000	147.000000	1083.000000	1.538622
1340.190000	146.500000	1090.000000	1.538101
1340.690000	146.000000	1101.000000	1.537580
1341.190000	145.500000	1049.000000	1.537059
1341.690000	145.000000	1066.000000	1.536539
1342.190000	144.500000	1113.000000	1.536018
1342.690000	144.000000	1081.500000	1.535497
1343.190000	143.500000	1089.500000	1.534976
1343.690000	143.000000	1052.000000	1.534456
1344.190000	142.500000	1070.000000	1.533935
1344.690000	142.000000	1093.000000	1.533414
1345.190000	141.500000	1120.500000	1.532893
1345.690000	141.000000	1091.500000	1.532372
1346.190000	140.500000	1132.000000	1.531852
1346.690000	140.000000	1137.500000	1.531331
1347.190000	139.500000	1177.500000	1.530810
1347.690000	139.000000	1146.000000	1.530289
1348.190000	138.500000	1124.500000	1.529768
1348.690000	138.000000	1143.000000	1.529248
1349.190000	137.500000	1151.500000	1.528727
1349.690000	137.000000	1131.000000	1.528206
1350.190000	136.500000	1103.000000	1.527685
1350.690000	136.000000	1096.000000	1.527165
1351.190000	135.500000	1074.000000	1.526644
1351.690000	135.000000	1069.500000	1.526123
1352.190000	134.500000	1104.000000	1.525602
1352.690000	134.000000	1129.000000	1.525081
1353.190000	133.500000	1096.500000	1.524561
1353.690000	133.000000	1100.000000	1.524040
1354.190000	132.500000	1075.500000	1.523519
1354.690000	132.000000	1063.500000	1.522998
1355.190000	131.500000	1066.500000	1.522477
1355.690000	131.000000	1087.500000	1.521957
1356.190000	130.500000	1097.000000	1.521436
1356.690000	130.000000	1127.000000	1.520915
1357.190000	129.500000	1094.500000	1.520394
1357.690000	129.000000	1154.000000	1.519874
1358.190000	128.500000	1154.500000	1.519353
1358.690000	128.000000	1158.000000	1.518832
1359.190000	127.500000	1221.000000	1.518311
1359.690000	127.000000	1267.500000	1.517790
1360.190000	126.500000	1281.500000	1.517270
1360.690000	126.000000	1313.500000	1.516749
1361.190000	125.500000	1389.000000	1.516228
1361.690000	125.000000	1403.000000	1.515707
1362.190000	124.500000	1406.500000	1.515187
1362.690000	124.000000	1469.000000	1.514666
1363.190000	123.500000	1502.000000	1.514145
1363.690000	123.000000	1461.500000	1.513624
1364.190000	122.500000	1428.000000	1.513103
1364.690000	122.000000	1317.000000	1.512583
1365.190000	121.500000	1224.500000	1.512062
1365.690000	121.000000	1198.500000	1.511541
1366.190000	120.500000	1120.000000	1.511020
1366.690000	120.000000	1144.000000	1.510499
1367.190000	119.500000	1121.000000	1.509979
1367.690000	119.000000	1068.500000	1.509458
1368.190000	118.500000	1070.500000	1.508937
1368.690000	118.000000	1034.500000	1.508416
1369.190000	117.500000	1038.500000	1.507896
1369.690000	117.000000	1016.500000	1.507375
1370.190000	116.500000	1017.500000	1.506854
1370.690000	116.000000	1033.500000	1.506333
1371.190000	115.500000	1029.000000	1.505812
1371.690000	115.000000	988.500000	1.505292
1372.190000	114.500000	1011.000000	1.504771
1372.690000	114.000000	1035.000000	1.504250
1373.190000	113.500000	1032.000000	1.503729
1373.690000	113.000000	1076.000000	1.503208
1374.190000	112.500000	1040.000000	1.502688
1374.690000	112.000000	1048.500000	1.502167
1375.190000	111.500000	1033.000000	1.501646
1375.690000	111.000000	1014.500000	1.501125
1376.190000	110.500000	1034.000000	1.500605
1376.690000	110.000000	1046.000000	1.500084
1377.190000	109.500000	1087.000000	1.499563
1377.690000	109.000000	1061.500000	1.499042
1378.190000	108.500000	1027.000000	1.498521
1378.690000	108.000000	1069.000000	1.498001
1379.190000	107.500000	1066.000000	1.497480
1379.690000	107.000000	1079.000000	1.496959
1380.190000	106.500000	1068.000000	1.496438
1380.690000	106.000000	1080.500000	1.495917
1381.190000	105.500000	1083.000000	1.495397
1381.690000	105.000000	1090.500000	1.494876
1382.190000	104.500000	1110.000000	1.494355
1382.690000	104.000000	1084.000000	1.493834
1383.190000	103.500000	1060.500000	1.493314
1383.690000	103.000000	1123.500000	1.492793
1384.190000	102.500000	1086.500000	1.492272
1384.690000	102.000000	1099.500000	1.491751
1385.190000	101.500000	1129.500000	1.491230
1385.690000	101.000000	1130.000000	1.490710
1386.190000	100.500000	1108.000000	1.490189
1386.690000	100.000000	1092.500000	1.489668
1387.190000	99.500000	1107.000000	1.489147
1387.690000	99.000000	1158.000000	1.488626
1388.190000	98.500000	1155.500000	1.488106
1388.690000	98.000000	1119.500000	1.487585
1389.190000	97.500000	1153.500000	1.487064
1389.690000	97.000000	1195.500000	1.486543
1390.190000	96.500000	1157.500000	1.486023
1390.690000	96.000000	1179.500000	1.485502
1391.190000	95.500000	1137.500000	1.484981
1391.690000	95.000000	1155.500000	1.484460
1392.190000	94.500000	1143.500000	1.483939
1392.690000	94.000000	1183.000000	1.483419
1393.190000	93.500000	1193.000000	1.482898
1393.690000	93.000000	1191.500000	1.482377
1394.190000	92.500000	1184.500000	1.481856
1394.690000	92.000000	1231.000000	1.481335
1395.190000	91.500000	1194.500000	1.480815
1395.690000	91.000000	1217.500000	1.480294
1396.190000	90.500000	1249.000000	1.479773
1396.690000	90.000000	1264.500000	1.479252
1397.190000	89.500000	1270.000000	1.478732
1397.690000	89.000000	1269.500000	1.478211
1398.190000	88.500000	1305.500000	1.477690
1398.690000	88.000000	1310.500000	1.477169
1399.190000	87.500000	1320.000000	1.476648
1399.690000	87.000000	1323.500000	1.476128
1400.190000	86.500000	1350.500000	1.475607
1400.690000	86.000000	1382.500000	1.475086
1401.190000	85.500000	1377.500000	1.474565
1401.690000	85.000000	1400.000000	1.474044
1402.190000	84.500000	1363.000000	1.473524
1402.690000	84.000000	1363.000000	1.473003
1403.190000	83.500000	1360.500000	1.472482
1403.690000	83.000000	1375.000000	1.471961
1404.190000	82.500000	1429.500000	1.471441
1404.690000	82.000000	1410.000000	1.470920
1405.190000	81.500000	1412.000000	1.470399
1405.690000	81.000000	1422.000000	1.469878
1406.190000	80.500000	1463.500000	1.469357
1406.690000	80.000000	1529.000000	1.468837
1407.190000	79.500000	1475.500000	1.468316
1407.690000	79.000000	1481.500000	1.467795
1408.190000	78.500000	1415.000000	1.467274
1408.690000	78.000000	1400.500000	1.466754
1409.190000	77.500000	1353.000000	1.466233
1409.690000	77.000000	1343.500000	1.465712
1410.190000	76.500000	1261.000000	1.465191
1410.690000	76.000000	1163.000000	1.464670
1411.190000	75.500000	1162.000000	1.464150
1411.690000	75.000000	1101.000000	1.463629
1412.190000	74.500000	1080.000000	1.463108
1412.690000	74.000000	1027.500000	1.462587
1413.190000	73.500000	998.000000	1.462066
1413.690000	73.000000	948.000000	1.461546
1414.190000	72.500000	939.000000	1.461025
1414.690000	72.000000	894.000000	1.460504
1415.190000	71.500000	902.500000	1.459983
1415.690000	71.000000	831.500000	1.459463
1416.190000	70.500000	790.500000	1.458942
1416.690000	70.000000	765.500000	1.458421
1417.190000	69.500000	750.000000	1.457900
1417.690000	69.000000	729.000000	1.457379
1418.190000	68.500000	706.000000	1.456859
1418.690000	68.000000	693.000000	1.456338
1419.190000	67.500000	677.500000	1.455817
1419.690000	67.000000	658.000000	1.455296
1420.190000	66.500000	605.500000	1.454775
1420.690000	66.000000	619.000000	1.454255
1421.190000	65.500000	607.000000	1.453734
1421.690000	65.000000	607.000000	1.453213
1422.190000	64.500000	608.500000	1.452692
1422.690000	64.000000	593.000000	1.452172
1423.190000	63.500000	608.500000	1.451651
1423.690000	63.000000	599.000000	1.451130
1424.190000	62.500000	599.000000	1.450609
1424.690000	62.000000	567.000000	1.450088
1425.190000	61.500000	593.500000	1.449568
1425.690000	61.000000	602.000000	1.449047
1426.190000	60.500000	578.500000	1.448526
1426.690000	60.000000	567.500000	1.448005
1427.190000	59.500000	572.000000	1.447484
1427.690000	59.000000	548.500000	1.446964
1428.190000	58.500000	582.500000	1.446443
1428.690000	58.000000	622.500000	1.445922
1429.190000	57.500000	592.000000	1.445401
1429.690000	57.000000	538.000000	1.444881
1430.190000	56.500000	567.500000	1.444360
1430.690000	56.000000	587.000000	1.443839
1431.190000	55.500000	568.500000	1.443318
1431.690000	55.000000	552.500000	1.442797
1432.190000	54.500000	599.500000	1.442277
1432.690000	54.000000	578.500000	1.441756
1433.190000	53.500000	579.000000	1.441235
1433.690000	53.000000	595.500000	1.440714
1434.190000	52.500000	594.000000	1.440193
1434.690000	52.000000	605.000000	1.439673
1435.190000	51.500000	574.500000	1.439152
1435.690000	51.000000	605.500000	1.438631
1436.190000	50.500000	612.500000	1.438110
1436.690000	50.000000	598.000000	1.437590
1437.190000	49.500000	572.500000	1.437069
1437.690000	49.000000	630.000000	1.436548
1438.190000	48.500000	641.000000	1.436027
1438.690000	48.000000	623.500000	1.435506
1439.190000	47.500000	666.500000	1.434986
1439.690000	47.000000	664.500000	1.434465
1440.190000	46.500000	651.500000	1.433944
1440.690000	46.000000	652.000000	1.433423
1441.190000	45.500000	669.500000	1.432902
1441.690000	45.000000	675.000000	1.432382
1442.190000	44.500000	663.500000	1.431861
1442.690000	44.000000	676.500000	1.431340
1443.190000	43.500000	664.000000	1.430819
1443.690000	43.000000	661.500000	1.430299
1444.190000	42.500000	652.000000	1.429778
1444.690000	42.000000	626.000000	1.429257
1445.190000	41.500000	638.500000	1.428736
1445.690000	41.000000	640.500000	1.428215
1446.190000	40.500000	643.500000	1.427695
1446.690000	40.000000	651.500000	1.427174
1447.190000	39.500000	692.500000	1.426653
1447.690000	39.000000	701.000000	1.426132
1448.190000	38.500000	723.000000	1.425612
1448.690000	38.000000	727.500000	1.425091
1449.190000	37.500000	699.500000	1.424570
1449.690000	37.000000	681.000000	1.424049
1450.190000	36.500000	722.000000	1.423528
1450.690000	36.000000	688.500000	1.423008
1451.190000	35.500000	688.500000	1.422487
1451.690000	35.000000	690.000000	1.421966
1452.190000	34.500000	660.000000	1.421445
1452.690000	34.000000	696.500000	1.420924
1453.190000	33.500000	658.000000	1.420404
1453.690000	33.000000	626.500000	1.419883
1454.190000	32.500000	618.000000	1.419362
1454.690000	32.000000	594.500000	1.418841
1455.190000	31.500000	603.000000	1.418321
1455.690000	31.000000	610.000000	1.417800
1456.190000	30.500000	595.000000	1.417279
1456.690000	30.000000	592.500000	1.416758
1457.190000	29.500000	620.500000	1.416237
1457.690000	29.000000	652.000000	1.415717
1458.190000	28.500000	685.000000	1.415196
1458.690000	28.000000	797.000000	1.414675
1459.190000	27.500000	961.000000	1.414154
1459.690000	27.000000	1089.500000	1.413633
1460.190000	26.500000	1095.000000	1.413113
1460.690000	26.000000	1013.500000	1.412592
1461.190000	25.500000	864.000000	1.412071
1461.690000	25.000000	669.500000	1.411550
1462.190000	24.500000	576.500000	1.411030
1462.690000	24.000000	573.000000	1.410509
1463.190000	23.500000	633.500000	1.410446
1463.690000	23.000000	686.000000	1.410446
1464.190000	22.500000	751.000000	1.410446
1464.690000	22.000000	789.000000	1.410446
1465.190000	21.500000	865.500000	1.410446
1465.690000	21.000000	946.500000	1.410446
1466.190000	20.500000	1255.000000	1.410446
1466.690000	20.000000	1986.500000	1.410446
1467.190000	19.500000	3404.000000	1.410446
1467.690000	19.000000	5221.500000	1.410446
1468.190000	18.500000	6545.000000	1.410446
1468.690000	18.000000	6342.500000	1.410446
1469.190000	17.500000	4636.000000	1.410446
1469.690000	17.000000	2341.500000	1.410446
1470.190000	16.500000	1086.000000	1.410446
1470.690000	16.000000	489.500000	1.410446
1471.190000	15.500000	214.500000	1.410446
1471.690000	15.000000	120.000000	1.410446
1472.190000	14.500000	86.000000	1.410446
1472.690000	14.000000	77.500000	1.410446
1473.190000	13.500000	69.500000	1.410446
1473.690000	13.000000	55.500000	1.410446
1474.190000	12.500000	66.000000	1.410446
1474.690000	12.000000	73.000000	1.410446
1475.190000	11.500000	63.000000	1.410446
1475.690000	11.000000	74.000000	1.410446
1476.190000	10.500000	88.000000	1.410446
1476.690000	10.000000	114.000000	1.410446
1477.190000	9.500000	137.500000	1.410446
1477.690000	9.000000	173.000000	1.410446
1478.190000	8.500000	213.000000	1.410446
1478.690000	8.000000	213.500000	1.410446
1479.190000	7.500000	235.500000	1.410446
1479.690000	7.000000	254.000000	1.410446
1480.190000	6.500000	253.500000	1.410446
1480.690000	6.000000	240.500000	1.410446
1481.190000	5.500000	249.500000	1.410446
1481.690000	5.000000	263.000000	1.410446
1482.190000	4.500000	251.000000	1.410446
1482.690000	4.000000	236.000000	1.410446
1483.190000	3.500000	188.500000	1.410446
1483.690000	3.000000	83.000000	1.410446
1484.190000	2.500000	24.500000	1.410446
1484.690000	2.000000	14.500000	1.410446
1485.190000	1.500000	8.500000	1.410446
1485.690000	1.000000	9.500000	1.410446
1486.190000	0.500000	10.000000	1.410446
1486.690000	0.000000	9.000000	1.410446
1487.190000	-0.500000	7.000000	1.410446
1487.690000	-1.000000	6.000000	1.410446
1488.190000	-1.500000	3.000000	1.410446
1488.690000	-2.000000	2.000000	1.410446
1489.190000	-2.500000	4.000000	1.410446
1489.690000	-3.000000	4.000000	1.410446
1490.190000	-3.500000	2.000000	1.410446
1490.690000	-4.000000	4.000000	1.410446
1491.190000	-4.500000	3.000000	1.410446
1491.690000	-5.000000	2.500000	1.410446


