Dataset wide_80:3(ito)
Dwell Time (s)	0.100000
Number of sweeps	10
Kinetic Energy(eV)	Binding Energy(eV)	Intensity(cps)	Transmission Value
286.690000	1200.000000	8554.000000	3.522864
287.190000	1199.500000	8697.000000	3.523253
287.690000	1199.000000	8683.000000	3.523643
288.190000	1198.500000	8688.000000	3.524033
288.690000	1198.000000	8746.000000	3.524423
289.190000	1197.500000	8557.000000	3.524812
289.690000	1197.000000	8787.000000	3.525202
290.190000	1196.500000	8764.000000	3.525592
290.690000	1196.000000	8788.000000	3.525982
291.190000	1195.500000	8841.000000	3.526372
291.690000	1195.000000	8808.000000	3.526761
292.190000	1194.500000	8820.000000	3.527151
292.690000	1194.000000	8794.000000	3.527541
293.190000	1193.500000	8955.000000	3.527931
293.690000	1193.000000	8858.000000	3.528321
294.190000	1192.500000	8759.000000	3.528710
294.690000	1192.000000	8926.000000	3.529100
295.190000	1191.500000	8935.000000	3.529490
295.690000	1191.000000	8754.000000	3.529880
296.190000	1190.500000	8664.000000	3.530269
296.690000	1190.000000	8832.000000	3.530659
297.190000	1189.500000	8724.000000	3.531049
297.690000	1189.000000	8702.000000	3.531439
298.190000	1188.500000	8921.000000	3.531829
298.690000	1188.000000	8860.000000	3.532218
299.190000	1187.500000	8839.000000	3.532608
299.690000	1187.000000	8750.000000	3.532998
300.190000	1186.500000	8637.000000	3.533388
300.690000	1186.000000	8757.000000	3.533777
301.190000	1185.500000	8732.000000	3.534167
301.690000	1185.000000	8800.000000	3.534557
302.190000	1184.500000	8679.000000	3.534947
302.690000	1184.000000	8730.000000	3.535337
303.190000	1183.500000	8693.000000	3.535726
303.690000	1183.000000	8745.000000	3.536116
304.190000	1182.500000	8530.000000	3.536506
304.690000	1182.000000	8663.000000	3.536896
305.190000	1181.500000	8686.000000	3.537286
305.690000	1181.000000	8571.000000	3.537675
306.190000	1180.500000	8504.000000	3.538065
306.690000	1180.000000	8556.000000	3.538455
307.190000	1179.500000	8645.000000	3.538845
307.690000	1179.000000	8533.000000	3.539234
308.190000	1178.500000	8620.000000	3.539624
308.690000	1178.000000	8543.000000	3.540014
309.190000	1177.500000	8625.000000	3.540404
309.690000	1177.000000	8648.000000	3.540794
310.190000	1176.500000	8536.000000	3.541183
310.690000	1176.000000	8618.000000	3.541573
311.190000	1175.500000	8614.000000	3.541963
311.690000	1175.000000	8643.000000	3.542353
312.190000	1174.500000	8645.000000	3.542742
312.690000	1174.000000	8666.000000	3.543132
313.190000	1173.500000	8701.000000	3.543522
313.690000	1173.000000	8728.000000	3.543912
314.190000	1172.500000	8800.000000	3.544302
314.690000	1172.000000	8720.000000	3.544691
315.190000	1171.500000	8626.000000	3.545081
315.690000	1171.000000	8669.000000	3.545471
316.190000	1170.500000	8849.000000	3.545861
316.690000	1170.000000	8867.000000	3.546250
317.190000	1169.500000	8758.000000	3.546640
317.690000	1169.000000	8815.000000	3.547030
318.190000	1168.500000	8726.000000	3.547420
318.690000	1168.000000	8894.000000	3.547810
319.190000	1167.500000	8828.000000	3.548199
319.690000	1167.000000	8849.000000	3.548589
320.190000	1166.500000	8835.000000	3.548979
320.690000	1166.000000	8866.000000	3.549369
321.190000	1165.500000	8809.000000	3.549759
321.690000	1165.000000	8852.000000	3.550148
322.190000	1164.500000	9016.000000	3.550538
322.690000	1164.000000	8983.000000	3.550928
323.190000	1163.500000	8922.000000	3.551318
323.690000	1163.000000	9010.000000	3.551707
324.190000	1162.500000	9151.000000	3.552097
324.690000	1162.000000	9015.000000	3.552487
325.190000	1161.500000	9116.000000	3.552877
325.690000	1161.000000	8987.000000	3.553267
326.190000	1160.500000	8963.000000	3.553656
326.690000	1160.000000	9093.000000	3.554046
327.190000	1159.500000	9168.000000	3.554436
327.690000	1159.000000	9176.000000	3.554826
328.190000	1158.500000	9241.000000	3.555215
328.690000	1158.000000	9383.000000	3.555983
329.190000	1157.500000	9272.000000	3.556794
329.690000	1157.000000	9202.000000	3.557606
330.190000	1156.500000	9179.000000	3.558418
330.690000	1156.000000	9244.000000	3.559230
331.190000	1155.500000	9169.000000	3.560042
331.690000	1155.000000	9311.000000	3.560853
332.190000	1154.500000	9332.000000	3.561665
332.690000	1154.000000	9133.000000	3.562477
333.190000	1153.500000	9162.000000	3.563289
333.690000	1153.000000	9225.000000	3.564101
334.190000	1152.500000	9272.000000	3.564913
334.690000	1152.000000	9195.000000	3.565724
335.190000	1151.500000	9263.000000	3.566536
335.690000	1151.000000	9210.000000	3.567348
336.190000	1150.500000	9303.000000	3.568160
336.690000	1150.000000	9260.000000	3.568972
337.190000	1149.500000	9246.000000	3.569783
337.690000	1149.000000	9217.000000	3.570595
338.190000	1148.500000	9178.000000	3.571407
338.690000	1148.000000	9103.000000	3.572219
339.190000	1147.500000	9184.000000	3.573031
339.690000	1147.000000	9092.000000	3.573843
340.190000	1146.500000	9280.000000	3.574654
340.690000	1146.000000	9127.000000	3.575466
341.190000	1145.500000	9122.000000	3.576278
341.690000	1145.000000	9058.000000	3.577090
342.190000	1144.500000	9078.000000	3.577902
342.690000	1144.000000	8989.000000	3.578713
343.190000	1143.500000	9073.000000	3.579525
343.690000	1143.000000	9038.000000	3.580337
344.190000	1142.500000	8930.000000	3.581149
344.690000	1142.000000	8840.000000	3.581961
345.190000	1141.500000	8839.000000	3.582773
345.690000	1141.000000	8734.000000	3.583584
346.190000	1140.500000	8727.000000	3.584396
346.690000	1140.000000	8887.000000	3.585208
347.190000	1139.500000	8860.000000	3.586020
347.690000	1139.000000	8477.000000	3.586832
348.190000	1138.500000	8484.000000	3.587643
348.690000	1138.000000	8533.000000	3.588455
349.190000	1137.500000	8476.000000	3.589267
349.690000	1137.000000	8402.000000	3.590079
350.190000	1136.500000	8436.000000	3.590891
350.690000	1136.000000	8454.000000	3.591703
351.190000	1135.500000	8503.000000	3.592514
351.690000	1135.000000	8322.000000	3.593326
352.190000	1134.500000	8250.000000	3.594138
352.690000	1134.000000	8262.000000	3.594950
353.190000	1133.500000	8201.000000	3.595762
353.690000	1133.000000	8130.000000	3.596573
354.190000	1132.500000	8159.000000	3.597385
354.690000	1132.000000	8191.000000	3.598197
355.190000	1131.500000	8196.000000	3.599009
355.690000	1131.000000	8083.000000	3.599821
356.190000	1130.500000	8101.000000	3.600633
356.690000	1130.000000	8049.000000	3.601444
357.190000	1129.500000	8122.000000	3.602256
357.690000	1129.000000	8144.000000	3.603068
358.190000	1128.500000	8070.000000	3.603880
358.690000	1128.000000	7978.000000	3.604692
359.190000	1127.500000	8084.000000	3.605503
359.690000	1127.000000	8068.000000	3.606315
360.190000	1126.500000	7984.000000	3.607127
360.690000	1126.000000	8077.000000	3.607939
361.190000	1125.500000	8118.000000	3.608751
361.690000	1125.000000	8123.000000	3.609563
362.190000	1124.500000	8090.000000	3.610374
362.690000	1124.000000	8047.000000	3.611186
363.190000	1123.500000	8085.000000	3.611998
363.690000	1123.000000	8049.000000	3.612810
364.190000	1122.500000	8239.000000	3.613622
364.690000	1122.000000	8233.000000	3.614433
365.190000	1121.500000	8129.000000	3.615245
365.690000	1121.000000	8156.000000	3.616057
366.190000	1120.500000	8235.000000	3.616869
366.690000	1120.000000	8153.000000	3.617681
367.190000	1119.500000	8148.000000	3.618493
367.690000	1119.000000	8195.000000	3.619304
368.190000	1118.500000	8221.000000	3.620116
368.690000	1118.000000	8140.000000	3.620928
369.190000	1117.500000	8356.000000	3.621740
369.690000	1117.000000	8187.000000	3.622552
370.190000	1116.500000	8386.000000	3.623363
370.690000	1116.000000	8397.000000	3.624175
371.190000	1115.500000	8377.000000	3.624987
371.690000	1115.000000	8538.000000	3.625799
372.190000	1114.500000	8200.000000	3.626611
372.690000	1114.000000	8244.000000	3.627423
373.190000	1113.500000	8378.000000	3.628234
373.690000	1113.000000	8190.000000	3.629046
374.190000	1112.500000	8295.000000	3.629858
374.690000	1112.000000	8380.000000	3.630670
375.190000	1111.500000	8409.000000	3.631482
375.690000	1111.000000	8523.000000	3.632293
376.190000	1110.500000	8424.000000	3.633105
376.690000	1110.000000	8435.000000	3.633917
377.190000	1109.500000	8399.000000	3.634729
377.690000	1109.000000	8436.000000	3.635541
378.190000	1108.500000	8555.000000	3.636353
378.690000	1108.000000	8463.000000	3.637164
379.190000	1107.500000	8490.000000	3.637976
379.690000	1107.000000	8573.000000	3.638788
380.190000	1106.500000	8362.000000	3.639600
380.690000	1106.000000	8617.000000	3.640412
381.190000	1105.500000	8613.000000	3.641223
381.690000	1105.000000	8513.000000	3.642035
382.190000	1104.500000	8592.000000	3.642847
382.690000	1104.000000	8676.000000	3.643659
383.190000	1103.500000	8651.000000	3.644471
383.690000	1103.000000	8632.000000	3.645283
384.190000	1102.500000	8522.000000	3.646094
384.690000	1102.000000	8628.000000	3.646906
385.190000	1101.500000	8556.000000	3.647718
385.690000	1101.000000	8566.000000	3.648530
386.190000	1100.500000	8555.000000	3.649342
386.690000	1100.000000	8745.000000	3.650153
387.190000	1099.500000	8641.000000	3.650965
387.690000	1099.000000	8650.000000	3.651777
388.190000	1098.500000	8610.000000	3.652589
388.690000	1098.000000	8565.000000	3.653401
389.190000	1097.500000	8517.000000	3.654213
389.690000	1097.000000	8549.000000	3.655024
390.190000	1096.500000	8435.000000	3.655836
390.690000	1096.000000	8494.000000	3.656648
391.190000	1095.500000	8604.000000	3.657460
391.690000	1095.000000	8680.000000	3.658272
392.190000	1094.500000	8665.000000	3.659083
392.690000	1094.000000	8703.000000	3.659895
393.190000	1093.500000	8887.000000	3.660707
393.690000	1093.000000	8975.000000	3.661519
394.190000	1092.500000	8929.000000	3.662331
394.690000	1092.000000	9067.000000	3.663143
395.190000	1091.500000	9292.000000	3.663954
395.690000	1091.000000	9633.000000	3.664766
396.190000	1090.500000	9774.000000	3.665578
396.690000	1090.000000	9986.000000	3.666390
397.190000	1089.500000	10261.000000	3.667202
397.690000	1089.000000	10862.000000	3.668014
398.190000	1088.500000	11522.000000	3.668825
398.690000	1088.000000	12075.000000	3.669637
399.190000	1087.500000	12332.000000	3.670449
399.690000	1087.000000	12528.000000	3.671261
400.190000	1086.500000	12690.000000	3.672073
400.690000	1086.000000	12752.000000	3.672884
401.190000	1085.500000	12396.000000	3.673696
401.690000	1085.000000	12048.000000	3.674508
402.190000	1084.500000	11625.000000	3.675320
402.690000	1084.000000	11057.000000	3.676132
403.190000	1083.500000	10474.000000	3.676944
403.690000	1083.000000	10207.000000	3.677755
404.190000	1082.500000	10069.000000	3.678567
404.690000	1082.000000	9785.000000	3.679379
405.190000	1081.500000	9763.000000	3.680191
405.690000	1081.000000	9989.000000	3.681003
406.190000	1080.500000	10232.000000	3.681814
406.690000	1080.000000	10283.000000	3.682626
407.190000	1079.500000	10232.000000	3.683438
407.690000	1079.000000	9965.000000	3.684250
408.190000	1078.500000	9636.000000	3.685062
408.690000	1078.000000	9295.000000	3.685874
409.190000	1077.500000	8726.000000	3.686685
409.690000	1077.000000	8283.000000	3.687497
410.190000	1076.500000	7788.000000	3.688309
410.690000	1076.000000	7543.000000	3.689121
411.190000	1075.500000	7347.000000	3.689933
411.690000	1075.000000	6992.000000	3.690744
412.190000	1074.500000	6904.000000	3.691556
412.690000	1074.000000	6886.000000	3.692368
413.190000	1073.500000	6725.000000	3.693180
413.690000	1073.000000	6722.000000	3.693992
414.190000	1072.500000	6705.000000	3.694804
414.690000	1072.000000	6748.000000	3.695615
415.190000	1071.500000	6742.000000	3.696427
415.690000	1071.000000	6649.000000	3.697239
416.190000	1070.500000	6727.000000	3.698051
416.690000	1070.000000	6748.000000	3.698863
417.190000	1069.500000	6782.000000	3.699674
417.690000	1069.000000	6877.000000	3.700486
418.190000	1068.500000	6788.000000	3.701298
418.690000	1068.000000	6861.000000	3.702110
419.190000	1067.500000	6883.000000	3.702922
419.690000	1067.000000	6936.000000	3.703734
420.190000	1066.500000	6898.000000	3.704545
420.690000	1066.000000	6915.000000	3.705357
421.190000	1065.500000	6882.000000	3.706169
421.690000	1065.000000	6860.000000	3.706981
422.190000	1064.500000	6930.000000	3.707793
422.690000	1064.000000	6907.000000	3.708604
423.190000	1063.500000	7036.000000	3.709416
423.690000	1063.000000	7032.000000	3.710228
424.190000	1062.500000	7190.000000	3.711040
424.690000	1062.000000	7142.000000	3.711852
425.190000	1061.500000	7191.000000	3.712664
425.690000	1061.000000	7246.000000	3.713475
426.190000	1060.500000	7177.000000	3.714287
426.690000	1060.000000	7218.000000	3.715099
427.190000	1059.500000	7131.000000	3.715911
427.690000	1059.000000	7028.000000	3.716723
428.190000	1058.500000	7063.000000	3.717534
428.690000	1058.000000	6880.000000	3.718346
429.190000	1057.500000	6795.000000	3.719158
429.690000	1057.000000	6696.000000	3.719970
430.190000	1056.500000	6575.000000	3.720782
430.690000	1056.000000	6702.000000	3.721594
431.190000	1055.500000	6659.000000	3.722405
431.690000	1055.000000	6816.000000	3.723217
432.190000	1054.500000	6753.000000	3.724029
432.690000	1054.000000	6795.000000	3.724841
433.190000	1053.500000	6855.000000	3.725653
433.690000	1053.000000	6717.000000	3.726464
434.190000	1052.500000	6539.000000	3.727276
434.690000	1052.000000	6606.000000	3.728088
435.190000	1051.500000	6600.000000	3.728900
435.690000	1051.000000	6434.000000	3.729712
436.190000	1050.500000	6552.000000	3.730524
436.690000	1050.000000	6459.000000	3.731335
437.190000	1049.500000	6354.000000	3.732147
437.690000	1049.000000	6432.000000	3.732959
438.190000	1048.500000	6410.000000	3.733771
438.690000	1048.000000	6301.000000	3.734583
439.190000	1047.500000	6463.000000	3.735394
439.690000	1047.000000	6402.000000	3.736206
440.190000	1046.500000	6338.000000	3.737018
440.690000	1046.000000	6252.000000	3.737830
441.190000	1045.500000	6324.000000	3.738642
441.690000	1045.000000	6334.000000	3.739454
442.190000	1044.500000	6350.000000	3.740265
442.690000	1044.000000	6430.000000	3.741077
443.190000	1043.500000	6385.000000	3.741889
443.690000	1043.000000	6296.000000	3.742701
444.190000	1042.500000	6383.000000	3.743513
444.690000	1042.000000	6415.000000	3.744324
445.190000	1041.500000	6417.000000	3.745136
445.690000	1041.000000	6455.000000	3.745948
446.190000	1040.500000	6461.000000	3.746760
446.690000	1040.000000	6410.000000	3.747572
447.190000	1039.500000	6416.000000	3.748384
447.690000	1039.000000	6479.000000	3.749195
448.190000	1038.500000	6453.000000	3.750007
448.690000	1038.000000	6450.000000	3.750819
449.190000	1037.500000	6439.000000	3.751631
449.690000	1037.000000	6398.000000	3.752443
450.190000	1036.500000	6415.000000	3.753254
450.690000	1036.000000	6445.000000	3.754066
451.190000	1035.500000	6515.000000	3.754878
451.690000	1035.000000	6481.000000	3.755690
452.190000	1034.500000	6565.000000	3.756502
452.690000	1034.000000	6501.000000	3.757314
453.190000	1033.500000	6506.000000	3.758125
453.690000	1033.000000	6521.000000	3.758937
454.190000	1032.500000	6544.000000	3.759749
454.690000	1032.000000	6519.000000	3.760561
455.190000	1031.500000	6527.000000	3.761373
455.690000	1031.000000	6541.000000	3.762184
456.190000	1030.500000	6644.000000	3.762954
456.690000	1030.000000	6699.000000	3.763635
457.190000	1029.500000	6586.000000	3.764316
457.690000	1029.000000	6688.000000	3.764997
458.190000	1028.500000	6727.000000	3.765678
458.690000	1028.000000	6641.000000	3.766359
459.190000	1027.500000	6615.000000	3.767039
459.690000	1027.000000	6635.000000	3.767720
460.190000	1026.500000	6671.000000	3.768401
460.690000	1026.000000	6694.000000	3.769082
461.190000	1025.500000	6455.000000	3.769763
461.690000	1025.000000	6579.000000	3.770444
462.190000	1024.500000	6622.000000	3.771125
462.690000	1024.000000	6553.000000	3.771805
463.190000	1023.500000	6757.000000	3.772486
463.690000	1023.000000	6695.000000	3.773167
464.190000	1022.500000	6751.000000	3.773848
464.690000	1022.000000	6743.000000	3.774529
465.190000	1021.500000	6748.000000	3.775210
465.690000	1021.000000	6814.000000	3.775890
466.190000	1020.500000	6719.000000	3.776571
466.690000	1020.000000	6827.000000	3.777252
467.190000	1019.500000	6808.000000	3.777933
467.690000	1019.000000	6743.000000	3.778614
468.190000	1018.500000	6629.000000	3.779295
468.690000	1018.000000	6843.000000	3.779976
469.190000	1017.500000	6802.000000	3.780656
469.690000	1017.000000	6860.000000	3.781337
470.190000	1016.500000	6942.000000	3.782018
470.690000	1016.000000	6963.000000	3.782699
471.190000	1015.500000	6852.000000	3.783380
471.690000	1015.000000	6858.000000	3.784061
472.190000	1014.500000	6984.000000	3.784741
472.690000	1014.000000	6910.000000	3.785422
473.190000	1013.500000	6922.000000	3.786103
473.690000	1013.000000	6920.000000	3.786784
474.190000	1012.500000	7019.000000	3.787465
474.690000	1012.000000	7081.000000	3.788146
475.190000	1011.500000	6987.000000	3.788827
475.690000	1011.000000	7058.000000	3.789507
476.190000	1010.500000	7029.000000	3.790188
476.690000	1010.000000	6983.000000	3.790869
477.190000	1009.500000	6965.000000	3.791550
477.690000	1009.000000	7035.000000	3.792231
478.190000	1008.500000	7105.000000	3.792912
478.690000	1008.000000	6985.000000	3.793593
479.190000	1007.500000	7059.000000	3.794273
479.690000	1007.000000	7138.000000	3.794954
480.190000	1006.500000	7001.000000	3.795635
480.690000	1006.000000	6981.000000	3.796316
481.190000	1005.500000	7017.000000	3.796997
481.690000	1005.000000	7087.000000	3.797678
482.190000	1004.500000	7113.000000	3.798358
482.690000	1004.000000	7106.000000	3.799039
483.190000	1003.500000	7145.000000	3.799720
483.690000	1003.000000	7151.000000	3.800401
484.190000	1002.500000	7002.000000	3.801082
484.690000	1002.000000	7147.000000	3.801763
485.190000	1001.500000	7069.000000	3.802444
485.690000	1001.000000	7060.000000	3.803124
486.190000	1000.500000	7164.000000	3.803805
486.690000	1000.000000	7268.000000	3.804486
487.190000	999.500000	7290.000000	3.805167
487.690000	999.000000	7276.000000	3.805848
488.190000	998.500000	7427.000000	3.806529
488.690000	998.000000	7456.000000	3.807209
489.190000	997.500000	7461.000000	3.807890
489.690000	997.000000	7468.000000	3.808571
490.190000	996.500000	7536.000000	3.809252
490.690000	996.000000	7573.000000	3.809933
491.190000	995.500000	7593.000000	3.810614
491.690000	995.000000	7664.000000	3.811295
492.190000	994.500000	7692.000000	3.811975
492.690000	994.000000	7585.000000	3.812656
493.190000	993.500000	7549.000000	3.813337
493.690000	993.000000	7578.000000	3.814018
494.190000	992.500000	7527.000000	3.814699
494.690000	992.000000	7351.000000	3.815380
495.190000	991.500000	7325.000000	3.816060
495.690000	991.000000	7217.000000	3.816741
496.190000	990.500000	7188.000000	3.817422
496.690000	990.000000	7315.000000	3.818103
497.190000	989.500000	7228.000000	3.818784
497.690000	989.000000	7389.000000	3.819465
498.190000	988.500000	7310.000000	3.820146
498.690000	988.000000	7254.000000	3.820826
499.190000	987.500000	7322.000000	3.821507
499.690000	987.000000	7302.000000	3.822188
500.190000	986.500000	7281.000000	3.822869
500.690000	986.000000	7208.000000	3.823550
501.190000	985.500000	7200.000000	3.824231
501.690000	985.000000	7184.000000	3.824912
502.190000	984.500000	7304.000000	3.825592
502.690000	984.000000	7321.000000	3.826273
503.190000	983.500000	7235.000000	3.826954
503.690000	983.000000	7424.000000	3.827635
504.190000	982.500000	7455.000000	3.828316
504.690000	982.000000	7311.000000	3.828997
505.190000	981.500000	7326.000000	3.829677
505.690000	981.000000	7410.000000	3.830358
506.190000	980.500000	7414.000000	3.831039
506.690000	980.000000	7536.000000	3.831720
507.190000	979.500000	7672.000000	3.832401
507.690000	979.000000	7643.000000	3.833082
508.190000	978.500000	7712.000000	3.833763
508.690000	978.000000	7913.000000	3.834443
509.190000	977.500000	8057.000000	3.835124
509.690000	977.000000	8265.000000	3.835805
510.190000	976.500000	8505.000000	3.836486
510.690000	976.000000	8871.000000	3.837167
511.190000	975.500000	9086.000000	3.837848
511.690000	975.000000	9299.000000	3.838528
512.190000	974.500000	9132.000000	3.839209
512.690000	974.000000	9035.000000	3.839890
513.190000	973.500000	8741.000000	3.840571
513.690000	973.000000	8359.000000	3.841252
514.190000	972.500000	8087.000000	3.841933
514.690000	972.000000	7897.000000	3.842614
515.190000	971.500000	7764.000000	3.843294
515.690000	971.000000	7651.000000	3.843975
516.190000	970.500000	7521.000000	3.844656
516.690000	970.000000	7338.000000	3.845337
517.190000	969.500000	7485.000000	3.846018
517.690000	969.000000	7387.000000	3.846699
518.190000	968.500000	7247.000000	3.847379
518.690000	968.000000	7142.000000	3.848060
519.190000	967.500000	7166.000000	3.848741
519.690000	967.000000	7150.000000	3.849422
520.190000	966.500000	6942.000000	3.850103
520.690000	966.000000	6847.000000	3.850784
521.190000	965.500000	6828.000000	3.851465
521.690000	965.000000	6811.000000	3.852145
522.190000	964.500000	6713.000000	3.852826
522.690000	964.000000	6717.000000	3.853507
523.190000	963.500000	6720.000000	3.854188
523.690000	963.000000	6673.000000	3.854869
524.190000	962.500000	6705.000000	3.855550
524.690000	962.000000	6731.000000	3.856230
525.190000	961.500000	6730.000000	3.856911
525.690000	961.000000	6645.000000	3.857592
526.190000	960.500000	6698.000000	3.858273
526.690000	960.000000	6648.000000	3.858954
527.190000	959.500000	6689.000000	3.859635
527.690000	959.000000	6706.000000	3.860316
528.190000	958.500000	6774.000000	3.860996
528.690000	958.000000	6644.000000	3.861677
529.190000	957.500000	6753.000000	3.862358
529.690000	957.000000	6759.000000	3.863039
530.190000	956.500000	6736.000000	3.863720
530.690000	956.000000	6794.000000	3.864401
531.190000	955.500000	6808.000000	3.865082
531.690000	955.000000	6866.000000	3.865762
532.190000	954.500000	6817.000000	3.866443
532.690000	954.000000	6835.000000	3.867124
533.190000	953.500000	6910.000000	3.867805
533.690000	953.000000	6969.000000	3.868486
534.190000	952.500000	6853.000000	3.869167
534.690000	952.000000	6852.000000	3.869847
535.190000	951.500000	6902.000000	3.870528
535.690000	951.000000	6780.000000	3.871209
536.190000	950.500000	6762.000000	3.871890
536.690000	950.000000	6859.000000	3.872571
537.190000	949.500000	6867.000000	3.873252
537.690000	949.000000	6870.000000	3.873933
538.190000	948.500000	6773.000000	3.874613
538.690000	948.000000	6864.000000	3.875294
539.190000	947.500000	6921.000000	3.875975
539.690000	947.000000	6805.000000	3.876656
540.190000	946.500000	6862.000000	3.877337
540.690000	946.000000	6909.000000	3.878018
541.190000	945.500000	6896.000000	3.878698
541.690000	945.000000	6966.000000	3.879379
542.190000	944.500000	6975.000000	3.880060
542.690000	944.000000	7019.000000	3.880741
543.190000	943.500000	6974.000000	3.881422
543.690000	943.000000	6934.000000	3.882103
544.190000	942.500000	7088.000000	3.882784
544.690000	942.000000	6998.000000	3.883464
545.190000	941.500000	7033.000000	3.884145
545.690000	941.000000	6985.000000	3.884826
546.190000	940.500000	6840.000000	3.885507
546.690000	940.000000	7018.000000	3.886188
547.190000	939.500000	6973.000000	3.886869
547.690000	939.000000	7016.000000	3.887549
548.190000	938.500000	7087.000000	3.888230
548.690000	938.000000	7044.000000	3.888911
549.190000	937.500000	6952.000000	3.889592
549.690000	937.000000	6993.000000	3.890273
550.190000	936.500000	7043.000000	3.890954
550.690000	936.000000	6956.000000	3.891635
551.190000	935.500000	7091.000000	3.892315
551.690000	935.000000	7136.000000	3.892996
552.190000	934.500000	7252.000000	3.893677
552.690000	934.000000	7058.000000	3.894358
553.190000	933.500000	7191.000000	3.895039
553.690000	933.000000	7258.000000	3.895720
554.190000	932.500000	7239.000000	3.896401
554.690000	932.000000	7205.000000	3.897081
555.190000	931.500000	7299.000000	3.897762
555.690000	931.000000	7283.000000	3.898443
556.190000	930.500000	7203.000000	3.899124
556.690000	930.000000	7191.000000	3.899805
557.190000	929.500000	7285.000000	3.900486
557.690000	929.000000	7201.000000	3.901166
558.190000	928.500000	7122.000000	3.901847
558.690000	928.000000	7085.000000	3.902528
559.190000	927.500000	7264.000000	3.903209
559.690000	927.000000	7282.000000	3.903890
560.190000	926.500000	7144.000000	3.904571
560.690000	926.000000	7166.000000	3.905252
561.190000	925.500000	7116.000000	3.905932
561.690000	925.000000	7262.000000	3.906613
562.190000	924.500000	7279.000000	3.907294
562.690000	924.000000	7306.000000	3.907975
563.190000	923.500000	7124.000000	3.908656
563.690000	923.000000	7163.000000	3.909337
564.190000	922.500000	7168.000000	3.910017
564.690000	922.000000	7193.000000	3.910698
565.190000	921.500000	7242.000000	3.911379
565.690000	921.000000	7340.000000	3.912060
566.190000	920.500000	7319.000000	3.912741
566.690000	920.000000	7438.000000	3.913422
567.190000	919.500000	7355.000000	3.914103
567.690000	919.000000	7353.000000	3.914783
568.190000	918.500000	7300.000000	3.915464
568.690000	918.000000	7338.000000	3.916145
569.190000	917.500000	7380.000000	3.916826
569.690000	917.000000	7323.000000	3.917507
570.190000	916.500000	7333.000000	3.918188
570.690000	916.000000	7384.000000	3.918868
571.190000	915.500000	7295.000000	3.919549
571.690000	915.000000	7376.000000	3.920230
572.190000	914.500000	7395.000000	3.920911
572.690000	914.000000	7377.000000	3.921592
573.190000	913.500000	7389.000000	3.922273
573.690000	913.000000	7360.000000	3.922954
574.190000	912.500000	7617.000000	3.923634
574.690000	912.000000	7451.000000	3.924315
575.190000	911.500000	7278.000000	3.924996
575.690000	911.000000	7347.000000	3.925677
576.190000	910.500000	7523.000000	3.926358
576.690000	910.000000	7495.000000	3.927039
577.190000	909.500000	7575.000000	3.927720
577.690000	909.000000	7501.000000	3.928400
578.190000	908.500000	7490.000000	3.929081
578.690000	908.000000	7548.000000	3.929762
579.190000	907.500000	7512.000000	3.930443
579.690000	907.000000	7644.000000	3.931124
580.190000	906.500000	7518.000000	3.931805
580.690000	906.000000	7516.000000	3.932485
581.190000	905.500000	7522.000000	3.933166
581.690000	905.000000	7496.000000	3.933847
582.190000	904.500000	7489.000000	3.934528
582.690000	904.000000	7471.000000	3.935209
583.190000	903.500000	7722.000000	3.935890
583.690000	903.000000	7622.000000	3.936571
584.190000	902.500000	7494.000000	3.937251
584.690000	902.000000	7640.000000	3.937932
585.190000	901.500000	7560.000000	3.938613
585.690000	901.000000	7594.000000	3.939294
586.190000	900.500000	7652.000000	3.939975
586.690000	900.000000	7667.000000	3.940656
587.190000	899.500000	7722.000000	3.941336
587.690000	899.000000	7845.000000	3.942017
588.190000	898.500000	7732.000000	3.942698
588.690000	898.000000	7743.000000	3.943379
589.190000	897.500000	7838.000000	3.944060
589.690000	897.000000	7679.000000	3.944741
590.190000	896.500000	7778.000000	3.945422
590.690000	896.000000	7917.000000	3.946102
591.190000	895.500000	7821.000000	3.946783
591.690000	895.000000	7825.000000	3.947464
592.190000	894.500000	7938.000000	3.948145
592.690000	894.000000	7821.000000	3.948826
593.190000	893.500000	7812.000000	3.949507
593.690000	893.000000	7801.000000	3.950187
594.190000	892.500000	7807.000000	3.950868
594.690000	892.000000	7997.000000	3.951549
595.190000	891.500000	7980.000000	3.952230
595.690000	891.000000	7922.000000	3.952911
596.190000	890.500000	7895.000000	3.953592
596.690000	890.000000	7737.000000	3.954273
597.190000	889.500000	8006.000000	3.954953
597.690000	889.000000	8053.000000	3.955634
598.190000	888.500000	7934.000000	3.956315
598.690000	888.000000	7912.000000	3.956996
599.190000	887.500000	7954.000000	3.957677
599.690000	887.000000	7896.000000	3.958358
600.190000	886.500000	7854.000000	3.959039
600.690000	886.000000	8028.000000	3.959719
601.190000	885.500000	8088.000000	3.960400
601.690000	885.000000	8044.000000	3.961081
602.190000	884.500000	8082.000000	3.961762
602.690000	884.000000	8063.000000	3.962443
603.190000	883.500000	8038.000000	3.963124
603.690000	883.000000	7926.000000	3.963804
604.190000	882.500000	8101.000000	3.964485
604.690000	882.000000	8126.000000	3.965166
605.190000	881.500000	8074.000000	3.965847
605.690000	881.000000	7995.000000	3.966528
606.190000	880.500000	8088.000000	3.967209
606.690000	880.000000	8001.000000	3.967890
607.190000	879.500000	8169.000000	3.968570
607.690000	879.000000	8097.000000	3.969251
608.190000	878.500000	8144.000000	3.969932
608.690000	878.000000	8055.000000	3.970613
609.190000	877.500000	7842.000000	3.971294
609.690000	877.000000	7997.000000	3.971975
610.190000	876.500000	8157.000000	3.972655
610.690000	876.000000	8197.000000	3.973336
611.190000	875.500000	8195.000000	3.974017
611.690000	875.000000	8273.000000	3.974698
612.190000	874.500000	8219.000000	3.975379
612.690000	874.000000	8235.000000	3.976060
613.190000	873.500000	8210.000000	3.976741
613.690000	873.000000	8141.000000	3.977421
614.190000	872.500000	8184.000000	3.978102
614.690000	872.000000	8214.000000	3.978783
615.190000	871.500000	8151.000000	3.979464
615.690000	871.000000	8204.000000	3.980145
616.190000	870.500000	8257.000000	3.980826
616.690000	870.000000	8361.000000	3.981506
617.190000	869.500000	8416.000000	3.982187
617.690000	869.000000	8172.000000	3.982868
618.190000	868.500000	8298.000000	3.983549
618.690000	868.000000	8270.000000	3.984230
619.190000	867.500000	8308.000000	3.984911
619.690000	867.000000	8294.000000	3.985592
620.190000	866.500000	8226.000000	3.986272
620.690000	866.000000	8254.000000	3.986953
621.190000	865.500000	8300.000000	3.987634
621.690000	865.000000	8323.000000	3.988315
622.190000	864.500000	8363.000000	3.988996
622.690000	864.000000	8405.000000	3.989677
623.190000	863.500000	8412.000000	3.990358
623.690000	863.000000	8367.000000	3.991038
624.190000	862.500000	8408.000000	3.991719
624.690000	862.000000	8496.000000	3.992400
625.190000	861.500000	8298.000000	3.993081
625.690000	861.000000	8397.000000	3.993762
626.190000	860.500000	8436.000000	3.994443
626.690000	860.000000	8553.000000	3.995123
627.190000	859.500000	8580.000000	3.995804
627.690000	859.000000	8515.000000	3.996485
628.190000	858.500000	8477.000000	3.997166
628.690000	858.000000	8454.000000	3.997847
629.190000	857.500000	8527.000000	3.998528
629.690000	857.000000	8602.000000	3.999209
630.190000	856.500000	8571.000000	3.999889
630.690000	856.000000	8590.000000	4.000570
631.190000	855.500000	8605.000000	4.001251
631.690000	855.000000	8613.000000	4.001932
632.190000	854.500000	8610.000000	4.002613
632.690000	854.000000	8595.000000	4.003294
633.190000	853.500000	8782.000000	4.003974
633.690000	853.000000	8563.000000	4.004655
634.190000	852.500000	8588.000000	4.005336
634.690000	852.000000	8567.000000	4.006017
635.190000	851.500000	8716.000000	4.006698
635.690000	851.000000	8753.000000	4.007379
636.190000	850.500000	8815.000000	4.008060
636.690000	850.000000	8783.000000	4.008740
637.190000	849.500000	8673.000000	4.009421
637.690000	849.000000	8774.000000	4.010102
638.190000	848.500000	8525.000000	4.010783
638.690000	848.000000	8659.000000	4.011464
639.190000	847.500000	8779.000000	4.012145
639.690000	847.000000	8874.000000	4.012825
640.190000	846.500000	8952.000000	4.013506
640.690000	846.000000	8940.000000	4.014187
641.190000	845.500000	8995.000000	4.014868
641.690000	845.000000	9026.000000	4.015549
642.190000	844.500000	8957.000000	4.016230
642.690000	844.000000	8846.000000	4.016911
643.190000	843.500000	8861.000000	4.017591
643.690000	843.000000	8935.000000	4.018272
644.190000	842.500000	8911.000000	4.018953
644.690000	842.000000	8869.000000	4.019634
645.190000	841.500000	8987.000000	4.020315
645.690000	841.000000	9068.000000	4.020996
646.190000	840.500000	8964.000000	4.021677
646.690000	840.000000	8890.000000	4.022357
647.190000	839.500000	9006.000000	4.023038
647.690000	839.000000	9140.000000	4.023719
648.190000	838.500000	9152.000000	4.024400
648.690000	838.000000	9000.000000	4.025081
649.190000	837.500000	8897.000000	4.025762
649.690000	837.000000	8954.000000	4.026442
650.190000	836.500000	9072.000000	4.027123
650.690000	836.000000	8995.000000	4.027804
651.190000	835.500000	9132.000000	4.028485
651.690000	835.000000	9238.000000	4.029166
652.190000	834.500000	9189.000000	4.029847
652.690000	834.000000	9302.000000	4.030528
653.190000	833.500000	9363.000000	4.031208
653.690000	833.000000	9334.000000	4.031889
654.190000	832.500000	9506.000000	4.032570
654.690000	832.000000	9635.000000	4.033251
655.190000	831.500000	9581.000000	4.033932
655.690000	831.000000	9688.000000	4.034613
656.190000	830.500000	9634.000000	4.035293
656.690000	830.000000	9839.000000	4.035974
657.190000	829.500000	9979.000000	4.036655
657.690000	829.000000	10100.000000	4.037336
658.190000	828.500000	10047.000000	4.038017
658.690000	828.000000	10111.000000	4.038698
659.190000	827.500000	10097.000000	4.039379
659.690000	827.000000	9975.000000	4.040059
660.190000	826.500000	9902.000000	4.040740
660.690000	826.000000	9999.000000	4.041421
661.190000	825.500000	9976.000000	4.042102
661.690000	825.000000	9886.000000	4.042783
662.190000	824.500000	9848.000000	4.043464
662.690000	824.000000	9663.000000	4.044144
663.190000	823.500000	9583.000000	4.044825
663.690000	823.000000	9515.000000	4.045506
664.190000	822.500000	9668.000000	4.046187
664.690000	822.000000	9529.000000	4.046868
665.190000	821.500000	9480.000000	4.047358
665.690000	821.000000	9374.000000	4.047665
666.190000	820.500000	9217.000000	4.047973
666.690000	820.000000	9349.000000	4.048280
667.190000	819.500000	9455.000000	4.048588
667.690000	819.000000	9124.000000	4.048895
668.190000	818.500000	9223.000000	4.049203
668.690000	818.000000	9185.000000	4.049510
669.190000	817.500000	9323.000000	4.049818
669.690000	817.000000	9272.000000	4.050125
670.190000	816.500000	9271.000000	4.050432
670.690000	816.000000	9281.000000	4.050740
671.190000	815.500000	9062.000000	4.051047
671.690000	815.000000	9157.000000	4.051355
672.190000	814.500000	9128.000000	4.051662
672.690000	814.000000	9150.000000	4.051970
673.190000	813.500000	9177.000000	4.052277
673.690000	813.000000	9225.000000	4.052585
674.190000	812.500000	9043.000000	4.052892
674.690000	812.000000	9109.000000	4.053199
675.190000	811.500000	9301.000000	4.053507
675.690000	811.000000	9321.000000	4.053814
676.190000	810.500000	9190.000000	4.054122
676.690000	810.000000	9213.000000	4.054429
677.190000	809.500000	9321.000000	4.054737
677.690000	809.000000	9379.000000	4.055044
678.190000	808.500000	9357.000000	4.055352
678.690000	808.000000	9421.000000	4.055659
679.190000	807.500000	9315.000000	4.055967
679.690000	807.000000	9233.000000	4.056274
680.190000	806.500000	9311.000000	4.056581
680.690000	806.000000	9351.000000	4.056889
681.190000	805.500000	9327.000000	4.057196
681.690000	805.000000	9244.000000	4.057504
682.190000	804.500000	9182.000000	4.057811
682.690000	804.000000	9264.000000	4.058119
683.190000	803.500000	9346.000000	4.058426
683.690000	803.000000	9283.000000	4.058734
684.190000	802.500000	9352.000000	4.059041
684.690000	802.000000	9297.000000	4.059348
685.190000	801.500000	9268.000000	4.059656
685.690000	801.000000	9386.000000	4.059963
686.190000	800.500000	9401.000000	4.060271
686.690000	800.000000	9238.000000	4.060578
687.190000	799.500000	9275.000000	4.060886
687.690000	799.000000	9350.000000	4.061193
688.190000	798.500000	9496.000000	4.061501
688.690000	798.000000	9437.000000	4.061808
689.190000	797.500000	9404.000000	4.062115
689.690000	797.000000	9422.000000	4.062423
690.190000	796.500000	9571.000000	4.062730
690.690000	796.000000	9426.000000	4.063038
691.190000	795.500000	9499.000000	4.063345
691.690000	795.000000	9318.000000	4.063653
692.190000	794.500000	9538.000000	4.063960
692.690000	794.000000	9594.000000	4.064268
693.190000	793.500000	9493.000000	4.064575
693.690000	793.000000	9552.000000	4.064883
694.190000	792.500000	9712.000000	4.065190
694.690000	792.000000	9659.000000	4.065497
695.190000	791.500000	9474.000000	4.065805
695.690000	791.000000	9562.000000	4.066112
696.190000	790.500000	9541.000000	4.066420
696.690000	790.000000	9588.000000	4.066727
697.190000	789.500000	9598.000000	4.067035
697.690000	789.000000	9523.000000	4.067342
698.190000	788.500000	9725.000000	4.067650
698.690000	788.000000	9746.000000	4.067957
699.190000	787.500000	9746.000000	4.068264
699.690000	787.000000	9729.000000	4.068572
700.190000	786.500000	9727.000000	4.068879
700.690000	786.000000	9629.000000	4.069187
701.190000	785.500000	9665.000000	4.069494
701.690000	785.000000	9827.000000	4.069802
702.190000	784.500000	9858.000000	4.070109
702.690000	784.000000	9868.000000	4.070417
703.190000	783.500000	9687.000000	4.070724
703.690000	783.000000	9696.000000	4.071032
704.190000	782.500000	9757.000000	4.071339
704.690000	782.000000	9867.000000	4.071646
705.190000	781.500000	9914.000000	4.071954
705.690000	781.000000	9882.000000	4.072261
706.190000	780.500000	10070.000000	4.072569
706.690000	780.000000	9861.000000	4.072876
707.190000	779.500000	9804.000000	4.073184
707.690000	779.000000	10048.000000	4.073491
708.190000	778.500000	9872.000000	4.073799
708.690000	778.000000	9991.000000	4.074106
709.190000	777.500000	9863.000000	4.074413
709.690000	777.000000	9849.000000	4.074721
710.190000	776.500000	9951.000000	4.075028
710.690000	776.000000	10022.000000	4.075336
711.190000	775.500000	9972.000000	4.075643
711.690000	775.000000	9987.000000	4.075951
712.190000	774.500000	10067.000000	4.076258
712.690000	774.000000	10090.000000	4.076566
713.190000	773.500000	10133.000000	4.076873
713.690000	773.000000	10017.000000	4.077181
714.190000	772.500000	9993.000000	4.077488
714.690000	772.000000	9961.000000	4.077795
715.190000	771.500000	10121.000000	4.078103
715.690000	771.000000	10136.000000	4.078410
716.190000	770.500000	10185.000000	4.078718
716.690000	770.000000	10220.000000	4.079025
717.190000	769.500000	10185.000000	4.079333
717.690000	769.000000	10249.000000	4.079640
718.190000	768.500000	10264.000000	4.079948
718.690000	768.000000	10108.000000	4.080255
719.190000	767.500000	10004.000000	4.080562
719.690000	767.000000	10004.000000	4.080870
720.190000	766.500000	10179.000000	4.081177
720.690000	766.000000	10234.000000	4.081485
721.190000	765.500000	10498.000000	4.081792
721.690000	765.000000	10385.000000	4.082100
722.190000	764.500000	10464.000000	4.082407
722.690000	764.000000	10441.000000	4.082715
723.190000	763.500000	10409.000000	4.083022
723.690000	763.000000	10460.000000	4.083329
724.190000	762.500000	10329.000000	4.083637
724.690000	762.000000	10349.000000	4.083944
725.190000	761.500000	10568.000000	4.084252
725.690000	761.000000	10611.000000	4.084559
726.190000	760.500000	10632.000000	4.084867
726.690000	760.000000	10947.000000	4.085174
727.190000	759.500000	10980.000000	4.085482
727.690000	759.000000	11025.000000	4.085789
728.190000	758.500000	11212.000000	4.086097
728.690000	758.000000	11140.000000	4.086404
729.190000	757.500000	11088.000000	4.086711
729.690000	757.000000	10881.000000	4.087019
730.190000	756.500000	10704.000000	4.087326
730.690000	756.000000	10611.000000	4.087634
731.190000	755.500000	10605.000000	4.087941
731.690000	755.000000	10661.000000	4.088249
732.190000	754.500000	10678.000000	4.088556
732.690000	754.000000	10666.000000	4.088864
733.190000	753.500000	10530.000000	4.089171
733.690000	753.000000	10633.000000	4.089478
734.190000	752.500000	10507.000000	4.089786
734.690000	752.000000	10649.000000	4.090093
735.190000	751.500000	10506.000000	4.090401
735.690000	751.000000	10629.000000	4.090708
736.190000	750.500000	10489.000000	4.091016
736.690000	750.000000	10534.000000	4.091323
737.190000	749.500000	10657.000000	4.091631
737.690000	749.000000	10420.000000	4.091938
738.190000	748.500000	10548.000000	4.092246
738.690000	748.000000	10472.000000	4.092553
739.190000	747.500000	10598.000000	4.092860
739.690000	747.000000	10728.000000	4.093168
740.190000	746.500000	10831.000000	4.093475
740.690000	746.000000	10890.000000	4.093783
741.190000	745.500000	10860.000000	4.094090
741.690000	745.000000	10839.000000	4.094398
742.190000	744.500000	10716.000000	4.094705
742.690000	744.000000	10842.000000	4.095013
743.190000	743.500000	10811.000000	4.095320
743.690000	743.000000	10837.000000	4.095627
744.190000	742.500000	11036.000000	4.095935
744.690000	742.000000	10797.000000	4.096242
745.190000	741.500000	10784.000000	4.096550
745.690000	741.000000	10941.000000	4.096857
746.190000	740.500000	10856.000000	4.097165
746.690000	740.000000	11068.000000	4.097472
747.190000	739.500000	11035.000000	4.097780
747.690000	739.000000	10906.000000	4.098087
748.190000	738.500000	10993.000000	4.098394
748.690000	738.000000	11224.000000	4.098702
749.190000	737.500000	11108.000000	4.099009
749.690000	737.000000	10992.000000	4.099317
750.190000	736.500000	11115.000000	4.099624
750.690000	736.000000	11164.000000	4.099932
751.190000	735.500000	11245.000000	4.100239
751.690000	735.000000	11146.000000	4.100547
752.190000	734.500000	11216.000000	4.100854
752.690000	734.000000	11183.000000	4.101162
753.190000	733.500000	11143.000000	4.101469
753.690000	733.000000	11404.000000	4.101776
754.190000	732.500000	11336.000000	4.102084
754.690000	732.000000	11413.000000	4.102391
755.190000	731.500000	11414.000000	4.102699
755.690000	731.000000	11316.000000	4.103006
756.190000	730.500000	11252.000000	4.103314
756.690000	730.000000	11354.000000	4.103621
757.190000	729.500000	11390.000000	4.103929
757.690000	729.000000	11288.000000	4.104236
758.190000	728.500000	11390.000000	4.104543
758.690000	728.000000	11514.000000	4.104851
759.190000	727.500000	11444.000000	4.105158
759.690000	727.000000	11398.000000	4.105466
760.190000	726.500000	11538.000000	4.105773
760.690000	726.000000	11463.000000	4.106081
761.190000	725.500000	11522.000000	4.106388
761.690000	725.000000	11405.000000	4.106696
762.190000	724.500000	11439.000000	4.107003
762.690000	724.000000	11578.000000	4.107311
763.190000	723.500000	11717.000000	4.107618
763.690000	723.000000	11631.000000	4.107925
764.190000	722.500000	11715.000000	4.108233
764.690000	722.000000	11681.000000	4.108540
765.190000	721.500000	11759.000000	4.108848
765.690000	721.000000	11849.000000	4.109155
766.190000	720.500000	11866.000000	4.109463
766.690000	720.000000	11797.000000	4.109770
767.190000	719.500000	11963.000000	4.110078
767.690000	719.000000	12161.000000	4.110385
768.190000	718.500000	12347.000000	4.110692
768.690000	718.000000	12677.000000	4.111000
769.190000	717.500000	12703.000000	4.111307
769.690000	717.000000	12860.000000	4.111615
770.190000	716.500000	12821.000000	4.111922
770.690000	716.000000	12752.000000	4.112230
771.190000	715.500000	12389.000000	4.112537
771.690000	715.000000	12075.000000	4.112845
772.190000	714.500000	11971.000000	4.113152
772.690000	714.000000	11898.000000	4.113460
773.190000	713.500000	11833.000000	4.113767
773.690000	713.000000	11626.000000	4.114074
774.190000	712.500000	11590.000000	4.114382
774.690000	712.000000	11518.000000	4.114689
775.190000	711.500000	11490.000000	4.114997
775.690000	711.000000	11711.000000	4.115304
776.190000	710.500000	11612.000000	4.115612
776.690000	710.000000	11549.000000	4.115919
777.190000	709.500000	11898.000000	4.116227
777.690000	709.000000	11897.000000	4.116534
778.190000	708.500000	12080.000000	4.116841
778.690000	708.000000	12383.000000	4.117149
779.190000	707.500000	12912.000000	4.117456
779.690000	707.000000	13289.000000	4.117764
780.190000	706.500000	13976.000000	4.118071
780.690000	706.000000	15077.000000	4.118379
781.190000	705.500000	16148.000000	4.118686
781.690000	705.000000	16926.000000	4.118994
782.190000	704.500000	17625.000000	4.119301
782.690000	704.000000	17903.000000	4.119608
783.190000	703.500000	16958.000000	4.119916
783.690000	703.000000	15884.000000	4.120223
784.190000	702.500000	14516.000000	4.120531
784.690000	702.000000	13419.000000	4.120838
785.190000	701.500000	12851.000000	4.121146
785.690000	701.000000	12495.000000	4.121453
786.190000	700.500000	11967.000000	4.121761
786.690000	700.000000	11823.000000	4.122068
787.190000	699.500000	11613.000000	4.122376
787.690000	699.000000	11599.000000	4.122683
788.190000	698.500000	11549.000000	4.122990
788.690000	698.000000	11476.000000	4.123298
789.190000	697.500000	11368.000000	4.123605
789.690000	697.000000	11216.000000	4.123913
790.190000	696.500000	11182.000000	4.124220
790.690000	696.000000	11251.000000	4.124528
791.190000	695.500000	11352.000000	4.124835
791.690000	695.000000	11331.000000	4.125143
792.190000	694.500000	11349.000000	4.125450
792.690000	694.000000	11264.000000	4.125757
793.190000	693.500000	11224.000000	4.126065
793.690000	693.000000	11150.000000	4.126372
794.190000	692.500000	11211.000000	4.126680
794.690000	692.000000	11082.000000	4.126987
795.190000	691.500000	11360.000000	4.127295
795.690000	691.000000	11163.000000	4.127602
796.190000	690.500000	11310.000000	4.127910
796.690000	690.000000	11372.000000	4.128217
797.190000	689.500000	11498.000000	4.128525
797.690000	689.000000	11447.000000	4.128832
798.190000	688.500000	11418.000000	4.129139
798.690000	688.000000	11452.000000	4.129447
799.190000	687.500000	11445.000000	4.129754
799.690000	687.000000	11382.000000	4.130062
800.190000	686.500000	11545.000000	4.130369
800.690000	686.000000	11602.000000	4.130677
801.190000	685.500000	11736.000000	4.130984
801.690000	685.000000	11708.000000	4.131292
802.190000	684.500000	11915.000000	4.131599
802.690000	684.000000	11823.000000	4.131906
803.190000	683.500000	11718.000000	4.132214
803.690000	683.000000	11681.000000	4.132521
804.190000	682.500000	11534.000000	4.132829
804.690000	682.000000	11586.000000	4.133136
805.190000	681.500000	11483.000000	4.133444
805.690000	681.000000	11489.000000	4.133751
806.190000	680.500000	11499.000000	4.134059
806.690000	680.000000	11346.000000	4.134366
807.190000	679.500000	11585.000000	4.134674
807.690000	679.000000	11516.000000	4.134981
808.190000	678.500000	11350.000000	4.135288
808.690000	678.000000	11287.000000	4.135596
809.190000	677.500000	11242.000000	4.135903
809.690000	677.000000	11317.000000	4.136211
810.190000	676.500000	11260.000000	4.136518
810.690000	676.000000	11225.000000	4.136826
811.190000	675.500000	11198.000000	4.137133
811.690000	675.000000	11073.000000	4.137441
812.190000	674.500000	11140.000000	4.137748
812.690000	674.000000	11195.000000	4.138055
813.190000	673.500000	11224.000000	4.138363
813.690000	673.000000	11351.000000	4.138670
814.190000	672.500000	11455.000000	4.138978
814.690000	672.000000	11402.000000	4.139285
815.190000	671.500000	11752.000000	4.139593
815.690000	671.000000	12096.000000	4.139900
816.190000	670.500000	12467.000000	4.140208
816.690000	670.000000	13025.000000	4.140515
817.190000	669.500000	14139.000000	4.140822
817.690000	669.000000	15234.000000	4.141130
818.190000	668.500000	16874.000000	4.141437
818.690000	668.000000	18817.000000	4.141745
819.190000	667.500000	21050.000000	4.142052
819.690000	667.000000	23168.000000	4.142360
820.190000	666.500000	24427.000000	4.142667
820.690000	666.000000	23927.000000	4.142975
821.190000	665.500000	22061.000000	4.143282
821.690000	665.000000	19764.000000	4.143590
822.190000	664.500000	17167.000000	4.143897
822.690000	664.000000	15317.000000	4.144204
823.190000	663.500000	13832.000000	4.144512
823.690000	663.000000	12652.000000	4.144819
824.190000	662.500000	12030.000000	4.145127
824.690000	662.000000	11521.000000	4.145434
825.190000	661.500000	10977.000000	4.145742
825.690000	661.000000	10768.000000	4.146049
826.190000	660.500000	10471.000000	4.146357
826.690000	660.000000	10261.000000	4.146664
827.190000	659.500000	10275.000000	4.146971
827.690000	659.000000	10200.000000	4.147279
828.190000	658.500000	9945.000000	4.147586
828.690000	658.000000	9868.000000	4.147894
829.190000	657.500000	9778.000000	4.148201
829.690000	657.000000	9827.000000	4.148509
830.190000	656.500000	9664.000000	4.148816
830.690000	656.000000	9768.000000	4.149124
831.190000	655.500000	9757.000000	4.149431
831.690000	655.000000	9557.000000	4.149739
832.190000	654.500000	9612.000000	4.150046
832.690000	654.000000	9517.000000	4.150353
833.190000	653.500000	9626.000000	4.150661
833.690000	653.000000	9543.000000	4.150968
834.190000	652.500000	9566.000000	4.151276
834.690000	652.000000	9619.000000	4.151583
835.190000	651.500000	9682.000000	4.151891
835.690000	651.000000	9630.000000	4.152198
836.190000	650.500000	9563.000000	4.152506
836.690000	650.000000	9721.000000	4.152813
837.190000	649.500000	9584.000000	4.153120
837.690000	649.000000	9650.000000	4.153428
838.190000	648.500000	9679.000000	4.153735
838.690000	648.000000	9667.000000	4.154043
839.190000	647.500000	9584.000000	4.154350
839.690000	647.000000	9650.000000	4.154658
840.190000	646.500000	9665.000000	4.154965
840.690000	646.000000	9628.000000	4.155273
841.190000	645.500000	9652.000000	4.155580
841.690000	645.000000	9566.000000	4.155888
842.190000	644.500000	9680.000000	4.156195
842.690000	644.000000	9506.000000	4.156502
843.190000	643.500000	9504.000000	4.156810
843.690000	643.000000	9677.000000	4.157117
844.190000	642.500000	9626.000000	4.157425
844.690000	642.000000	9742.000000	4.157732
845.190000	641.500000	9632.000000	4.158040
845.690000	641.000000	9661.000000	4.158347
846.190000	640.500000	9636.000000	4.158655
846.690000	640.000000	9773.000000	4.158962
847.190000	639.500000	9779.000000	4.159269
847.690000	639.000000	9661.000000	4.159577
848.190000	638.500000	9765.000000	4.159884
848.690000	638.000000	9645.000000	4.160192
849.190000	637.500000	9600.000000	4.160499
849.690000	637.000000	9671.000000	4.160807
850.190000	636.500000	9713.000000	4.161114
850.690000	636.000000	9842.000000	4.161422
851.190000	635.500000	9748.000000	4.161729
851.690000	635.000000	9850.000000	4.162036
852.190000	634.500000	9822.000000	4.162344
852.690000	634.000000	9681.000000	4.162651
853.190000	633.500000	9736.000000	4.162959
853.690000	633.000000	9597.000000	4.163266
854.190000	632.500000	9810.000000	4.163574
854.690000	632.000000	9792.000000	4.163881
855.190000	631.500000	9852.000000	4.164189
855.690000	631.000000	9875.000000	4.164496
856.190000	630.500000	9801.000000	4.164804
856.690000	630.000000	9770.000000	4.165111
857.190000	629.500000	10006.000000	4.165418
857.690000	629.000000	9999.000000	4.165726
858.190000	628.500000	9909.000000	4.166033
858.690000	628.000000	9934.000000	4.166341
859.190000	627.500000	10041.000000	4.166648
859.690000	627.000000	9838.000000	4.166956
860.190000	626.500000	10038.000000	4.167263
860.690000	626.000000	10074.000000	4.167571
861.190000	625.500000	9971.000000	4.167878
861.690000	625.000000	9891.000000	4.168185
862.190000	624.500000	9905.000000	4.168493
862.690000	624.000000	9994.000000	4.168800
863.190000	623.500000	9938.000000	4.169108
863.690000	623.000000	10044.000000	4.169415
864.190000	622.500000	10073.000000	4.169723
864.690000	622.000000	10160.000000	4.170030
865.190000	621.500000	10238.000000	4.170338
865.690000	621.000000	10267.000000	4.170645
866.190000	620.500000	10211.000000	4.170953
866.690000	620.000000	10170.000000	4.171260
867.190000	619.500000	10044.000000	4.171567
867.690000	619.000000	10120.000000	4.171875
868.190000	618.500000	10103.000000	4.172182
868.690000	618.000000	10165.000000	4.172490
869.190000	617.500000	10185.000000	4.172797
869.690000	617.000000	10143.000000	4.173105
870.190000	616.500000	10178.000000	4.173412
870.690000	616.000000	10229.000000	4.173720
871.190000	615.500000	10145.000000	4.174027
871.690000	615.000000	10220.000000	4.174334
872.190000	614.500000	10339.000000	4.174642
872.690000	614.000000	10485.000000	4.174949
873.190000	613.500000	10244.000000	4.175257
873.690000	613.000000	10237.000000	4.175564
874.190000	612.500000	10262.000000	4.175872
874.690000	612.000000	10547.000000	4.176179
875.190000	611.500000	10332.000000	4.176487
875.690000	611.000000	10483.000000	4.176794
876.190000	610.500000	10427.000000	4.177102
876.690000	610.000000	10408.000000	4.177409
877.190000	609.500000	10401.000000	4.177716
877.690000	609.000000	10206.000000	4.178024
878.190000	608.500000	10379.000000	4.178331
878.690000	608.000000	10485.000000	4.178639
879.190000	607.500000	10340.000000	4.178946
879.690000	607.000000	10520.000000	4.179254
880.190000	606.500000	10261.000000	4.179561
880.690000	606.000000	10299.000000	4.179869
881.190000	605.500000	10505.000000	4.180176
881.690000	605.000000	10662.000000	4.180483
882.190000	604.500000	10624.000000	4.180791
882.690000	604.000000	10535.000000	4.181098
883.190000	603.500000	10495.000000	4.181406
883.690000	603.000000	10499.000000	4.181713
884.190000	602.500000	10367.000000	4.182021
884.690000	602.000000	10504.000000	4.182328
885.190000	601.500000	10538.000000	4.182636
885.690000	601.000000	10589.000000	4.182943
886.190000	600.500000	10584.000000	4.183250
886.690000	600.000000	10746.000000	4.183558
887.190000	599.500000	10685.000000	4.183626
887.690000	599.000000	10705.000000	4.183648
888.190000	598.500000	10478.000000	4.183670
888.690000	598.000000	10727.000000	4.183692
889.190000	597.500000	10784.000000	4.183714
889.690000	597.000000	10706.000000	4.183736
890.190000	596.500000	10784.000000	4.183758
890.690000	596.000000	10840.000000	4.183780
891.190000	595.500000	10805.000000	4.183802
891.690000	595.000000	10735.000000	4.183824
892.190000	594.500000	10816.000000	4.183846
892.690000	594.000000	10797.000000	4.183868
893.190000	593.500000	10855.000000	4.183890
893.690000	593.000000	10901.000000	4.183912
894.190000	592.500000	10733.000000	4.183933
894.690000	592.000000	10701.000000	4.183955
895.190000	591.500000	10739.000000	4.183977
895.690000	591.000000	10929.000000	4.183999
896.190000	590.500000	10939.000000	4.184021
896.690000	590.000000	10997.000000	4.184043
897.190000	589.500000	11118.000000	4.184065
897.690000	589.000000	10997.000000	4.184087
898.190000	588.500000	10992.000000	4.184109
898.690000	588.000000	11165.000000	4.184131
899.190000	587.500000	11049.000000	4.184153
899.690000	587.000000	11048.000000	4.184175
900.190000	586.500000	11167.000000	4.184197
900.690000	586.000000	10998.000000	4.184219
901.190000	585.500000	11048.000000	4.184241
901.690000	585.000000	11173.000000	4.184263
902.190000	584.500000	11117.000000	4.184285
902.690000	584.000000	11133.000000	4.184307
903.190000	583.500000	11130.000000	4.184329
903.690000	583.000000	11141.000000	4.184351
904.190000	582.500000	11265.000000	4.184372
904.690000	582.000000	11087.000000	4.184394
905.190000	581.500000	11140.000000	4.184416
905.690000	581.000000	11234.000000	4.184438
906.190000	580.500000	11221.000000	4.184460
906.690000	580.000000	11197.000000	4.184482
907.190000	579.500000	11306.000000	4.184504
907.690000	579.000000	11181.000000	4.184526
908.190000	578.500000	11202.000000	4.184548
908.690000	578.000000	11201.000000	4.184570
909.190000	577.500000	11354.000000	4.184592
909.690000	577.000000	11411.000000	4.184614
910.190000	576.500000	11363.000000	4.184636
910.690000	576.000000	11408.000000	4.184658
911.190000	575.500000	11428.000000	4.184680
911.690000	575.000000	11305.000000	4.184702
912.190000	574.500000	11380.000000	4.184724
912.690000	574.000000	11498.000000	4.184746
913.190000	573.500000	11393.000000	4.184768
913.690000	573.000000	11428.000000	4.184790
914.190000	572.500000	11567.000000	4.184812
914.690000	572.000000	11662.000000	4.184833
915.190000	571.500000	11588.000000	4.184855
915.690000	571.000000	11715.000000	4.184877
916.190000	570.500000	11636.000000	4.184899
916.690000	570.000000	11645.000000	4.184921
917.190000	569.500000	11522.000000	4.184943
917.690000	569.000000	11661.000000	4.184965
918.190000	568.500000	11595.000000	4.184987
918.690000	568.000000	11427.000000	4.185009
919.190000	567.500000	11637.000000	4.185031
919.690000	567.000000	11529.000000	4.185053
920.190000	566.500000	11513.000000	4.185075
920.690000	566.000000	11560.000000	4.185097
921.190000	565.500000	11605.000000	4.185119
921.690000	565.000000	11662.000000	4.185141
922.190000	564.500000	11572.000000	4.185163
922.690000	564.000000	11476.000000	4.185185
923.190000	563.500000	11492.000000	4.185207
923.690000	563.000000	11559.000000	4.185229
924.190000	562.500000	11573.000000	4.185251
924.690000	562.000000	11554.000000	4.185273
925.190000	561.500000	11710.000000	4.185294
925.690000	561.000000	11800.000000	4.185316
926.190000	560.500000	11758.000000	4.185338
926.690000	560.000000	11651.000000	4.185360
927.190000	559.500000	11680.000000	4.185382
927.690000	559.000000	11697.000000	4.185404
928.190000	558.500000	11704.000000	4.185426
928.690000	558.000000	11826.000000	4.185448
929.190000	557.500000	11842.000000	4.185470
929.690000	557.000000	12010.000000	4.185492
930.190000	556.500000	12040.000000	4.185514
930.690000	556.000000	12095.000000	4.185536
931.190000	555.500000	12156.000000	4.185558
931.690000	555.000000	12277.000000	4.185580
932.190000	554.500000	12147.000000	4.185602
932.690000	554.000000	12202.000000	4.185624
933.190000	553.500000	12360.000000	4.185646
933.690000	553.000000	12362.000000	4.185668
934.190000	552.500000	12417.000000	4.185690
934.690000	552.000000	12309.000000	4.185712
935.190000	551.500000	12372.000000	4.185733
935.690000	551.000000	12602.000000	4.185755
936.190000	550.500000	12444.000000	4.185777
936.690000	550.000000	12351.000000	4.185799
937.190000	549.500000	12638.000000	4.185821
937.690000	549.000000	12638.000000	4.185843
938.190000	548.500000	12602.000000	4.185865
938.690000	548.000000	12633.000000	4.185887
939.190000	547.500000	12579.000000	4.185909
939.690000	547.000000	12720.000000	4.185931
940.190000	546.500000	12483.000000	4.185953
940.690000	546.000000	12373.000000	4.185975
941.190000	545.500000	12135.000000	4.185997
941.690000	545.000000	12097.000000	4.186019
942.190000	544.500000	11779.000000	4.186041
942.690000	544.000000	11802.000000	4.186063
943.190000	543.500000	11756.000000	4.186085
943.690000	543.000000	11660.000000	4.186107
944.190000	542.500000	11558.000000	4.186129
944.690000	542.000000	11543.000000	4.186151
945.190000	541.500000	11588.000000	4.186173
945.690000	541.000000	11707.000000	4.186194
946.190000	540.500000	11446.000000	4.186216
946.690000	540.000000	11498.000000	4.186238
947.190000	539.500000	11466.000000	4.186260
947.690000	539.000000	11332.000000	4.186282
948.190000	538.500000	11411.000000	4.186304
948.690000	538.000000	11541.000000	4.186326
949.190000	537.500000	11470.000000	4.186348
949.690000	537.000000	11493.000000	4.186370
950.190000	536.500000	11377.000000	4.186392
950.690000	536.000000	11504.000000	4.186414
951.190000	535.500000	11481.000000	4.186436
951.690000	535.000000	11572.000000	4.186458
952.190000	534.500000	11955.000000	4.186480
952.690000	534.000000	12415.000000	4.186502
953.190000	533.500000	13230.000000	4.186524
953.690000	533.000000	14737.000000	4.186546
954.190000	532.500000	17019.000000	4.186568
954.690000	532.000000	19871.000000	4.186590
955.190000	531.500000	23090.000000	4.186612
955.690000	531.000000	27490.000000	4.186634
956.190000	530.500000	28666.000000	4.186655
956.690000	530.000000	23319.000000	4.186677
957.190000	529.500000	16141.000000	4.186699
957.690000	529.000000	12598.000000	4.186721
958.190000	528.500000	11558.000000	4.186743
958.690000	528.000000	11303.000000	4.186765
959.190000	527.500000	11117.000000	4.186787
959.690000	527.000000	10964.000000	4.186809
960.190000	526.500000	10950.000000	4.186831
960.690000	526.000000	10990.000000	4.186853
961.190000	525.500000	11055.000000	4.186875
961.690000	525.000000	10925.000000	4.186897
962.190000	524.500000	10995.000000	4.186919
962.690000	524.000000	11003.000000	4.186941
963.190000	523.500000	11083.000000	4.186963
963.690000	523.000000	11098.000000	4.186985
964.190000	522.500000	11078.000000	4.187007
964.690000	522.000000	11002.000000	4.187029
965.190000	521.500000	11118.000000	4.187051
965.690000	521.000000	11031.000000	4.187073
966.190000	520.500000	11131.000000	4.187094
966.690000	520.000000	11053.000000	4.187116
967.190000	519.500000	11074.000000	4.187138
967.690000	519.000000	10974.000000	4.187160
968.190000	518.500000	10953.000000	4.187182
968.690000	518.000000	11197.000000	4.187204
969.190000	517.500000	11206.000000	4.187226
969.690000	517.000000	11223.000000	4.187248
970.190000	516.500000	11275.000000	4.187270
970.690000	516.000000	11309.000000	4.187292
971.190000	515.500000	11337.000000	4.187314
971.690000	515.000000	11318.000000	4.187336
972.190000	514.500000	11346.000000	4.187358
972.690000	514.000000	11296.000000	4.187380
973.190000	513.500000	11328.000000	4.187402
973.690000	513.000000	11478.000000	4.187424
974.190000	512.500000	11322.000000	4.187446
974.690000	512.000000	11262.000000	4.187468
975.190000	511.500000	11415.000000	4.187490
975.690000	511.000000	11446.000000	4.187512
976.190000	510.500000	11280.000000	4.187534
976.690000	510.000000	11428.000000	4.187555
977.190000	509.500000	11300.000000	4.187577
977.690000	509.000000	11355.000000	4.187599
978.190000	508.500000	11665.000000	4.187621
978.690000	508.000000	11341.000000	4.187643
979.190000	507.500000	11476.000000	4.187665
979.690000	507.000000	11754.000000	4.187687
980.190000	506.500000	11498.000000	4.187709
980.690000	506.000000	11543.000000	4.187731
981.190000	505.500000	11538.000000	4.187753
981.690000	505.000000	11537.000000	4.187775
982.190000	504.500000	11643.000000	4.187797
982.690000	504.000000	11623.000000	4.187819
983.190000	503.500000	11757.000000	4.187841
983.690000	503.000000	11678.000000	4.187863
984.190000	502.500000	11661.000000	4.187885
984.690000	502.000000	11688.000000	4.187907
985.190000	501.500000	11608.000000	4.187929
985.690000	501.000000	11565.000000	4.187951
986.190000	500.500000	11621.000000	4.187973
986.690000	500.000000	11536.000000	4.187995
987.190000	499.500000	11457.000000	4.188016
987.690000	499.000000	11467.000000	4.188038
988.190000	498.500000	11560.000000	4.188060
988.690000	498.000000	11940.000000	4.188082
989.190000	497.500000	12522.000000	4.188104
989.690000	497.000000	13485.000000	4.188126
990.190000	496.500000	14756.000000	4.188148
990.690000	496.000000	16237.000000	4.188170
991.190000	495.500000	16986.000000	4.188192
991.690000	495.000000	15854.000000	4.188214
992.190000	494.500000	13344.000000	4.188236
992.690000	494.000000	11956.000000	4.188258
993.190000	493.500000	11456.000000	4.188280
993.690000	493.000000	11309.000000	4.188302
994.190000	492.500000	11243.000000	4.188324
994.690000	492.000000	11074.000000	4.188346
995.190000	491.500000	11112.000000	4.188368
995.690000	491.000000	11264.000000	4.188390
996.190000	490.500000	11379.000000	4.188412
996.690000	490.000000	11514.000000	4.188434
997.190000	489.500000	11892.000000	4.188456
997.690000	489.000000	12845.000000	4.188477
998.190000	488.500000	14463.000000	4.188499
998.690000	488.000000	16743.000000	4.188521
999.190000	487.500000	18500.000000	4.188543
999.690000	487.000000	19292.000000	4.188565
1000.190000	486.500000	17370.000000	4.188587
1000.690000	486.000000	13868.000000	4.188609
1001.190000	485.500000	11849.000000	4.188631
1001.690000	485.000000	11463.000000	4.188653
1002.190000	484.500000	11265.000000	4.188675
1002.690000	484.000000	11130.000000	4.188697
1003.190000	483.500000	11175.000000	4.188719
1003.690000	483.000000	11179.000000	4.188741
1004.190000	482.500000	11005.000000	4.188763
1004.690000	482.000000	11190.000000	4.188785
1005.190000	481.500000	11275.000000	4.188807
1005.690000	481.000000	11341.000000	4.188829
1006.190000	480.500000	11221.000000	4.188851
1006.690000	480.000000	11308.000000	4.188873
1007.190000	479.500000	11295.000000	4.188895
1007.690000	479.000000	11279.000000	4.188916
1008.190000	478.500000	11336.000000	4.188938
1008.690000	478.000000	11423.000000	4.188960
1009.190000	477.500000	11488.000000	4.188982
1009.690000	477.000000	11468.000000	4.189004
1010.190000	476.500000	11552.000000	4.189026
1010.690000	476.000000	11571.000000	4.189048
1011.190000	475.500000	11572.000000	4.189070
1011.690000	475.000000	11627.000000	4.189092
1012.190000	474.500000	11744.000000	4.189114
1012.690000	474.000000	11982.000000	4.189136
1013.190000	473.500000	11994.000000	4.189158
1013.690000	473.000000	12124.000000	4.189180
1014.190000	472.500000	12372.000000	4.189202
1014.690000	472.000000	12476.000000	4.189224
1015.190000	471.500000	12607.000000	4.189246
1015.690000	471.000000	12697.000000	4.189268
1016.190000	470.500000	12644.000000	4.189290
1016.690000	470.000000	12530.000000	4.189312
1017.190000	469.500000	12604.000000	4.189334
1017.690000	469.000000	12344.000000	4.189356
1018.190000	468.500000	12438.000000	4.189377
1018.690000	468.000000	12308.000000	4.189399
1019.190000	467.500000	12396.000000	4.189421
1019.690000	467.000000	12114.000000	4.189443
1020.190000	466.500000	12045.000000	4.189465
1020.690000	466.000000	12189.000000	4.189487
1021.190000	465.500000	12284.000000	4.189509
1021.690000	465.000000	12486.000000	4.189531
1022.190000	464.500000	12414.000000	4.189553
1022.690000	464.000000	12450.000000	4.189575
1023.190000	463.500000	12211.000000	4.189597
1023.690000	463.000000	12032.000000	4.189619
1024.190000	462.500000	11755.000000	4.189641
1024.690000	462.000000	11628.000000	4.189663
1025.190000	461.500000	11278.000000	4.189685
1025.690000	461.000000	10975.000000	4.189707
1026.190000	460.500000	10894.000000	4.189729
1026.690000	460.000000	10691.000000	4.189751
1027.190000	459.500000	10546.000000	4.189773
1027.690000	459.000000	10340.000000	4.189795
1028.190000	458.500000	10275.000000	4.189817
1028.690000	458.000000	9992.000000	4.189838
1029.190000	457.500000	9823.000000	4.189860
1029.690000	457.000000	9835.000000	4.189882
1030.190000	456.500000	9819.000000	4.189904
1030.690000	456.000000	10187.000000	4.189926
1031.190000	455.500000	10975.000000	4.189948
1031.690000	455.000000	13103.000000	4.189970
1032.190000	454.500000	17698.000000	4.189992
1032.690000	454.000000	26594.000000	4.190014
1033.190000	453.500000	40804.000000	4.190036
1033.690000	453.000000	57162.000000	4.190058
1034.190000	452.500000	64028.000000	4.190080
1034.690000	452.000000	48854.000000	4.190102
1035.190000	451.500000	23834.000000	4.190176
1035.690000	451.000000	11440.000000	4.190332
1036.190000	450.500000	8286.000000	4.190488
1036.690000	450.000000	7160.000000	4.190644
1037.190000	449.500000	6626.000000	4.190800
1037.690000	449.000000	6500.000000	4.190955
1038.190000	448.500000	6888.000000	4.191111
1038.690000	448.000000	8178.000000	4.191267
1039.190000	447.500000	11370.000000	4.191423
1039.690000	447.000000	18080.000000	4.191579
1040.190000	446.500000	30713.000000	4.191735
1040.690000	446.000000	51188.000000	4.191891
1041.190000	445.500000	74982.000000	4.192047
1041.690000	445.000000	88217.000000	4.192203
1042.190000	444.500000	69019.000000	4.192358
1042.690000	444.000000	31591.000000	4.192514
1043.190000	443.500000	11732.000000	4.192670
1043.690000	443.000000	6417.000000	4.192826
1044.190000	442.500000	4661.000000	4.192982
1044.690000	442.000000	3700.000000	4.193138
1045.190000	441.500000	3102.000000	4.193294
1045.690000	441.000000	2803.000000	4.193450
1046.190000	440.500000	2599.000000	4.193606
1046.690000	440.000000	2399.000000	4.193761
1047.190000	439.500000	2285.000000	4.193917
1047.690000	439.000000	2243.000000	4.194073
1048.190000	438.500000	2193.000000	4.194229
1048.690000	438.000000	2105.000000	4.194385
1049.190000	437.500000	2080.000000	4.194541
1049.690000	437.000000	2049.000000	4.194697
1050.190000	436.500000	2039.000000	4.194853
1050.690000	436.000000	2043.000000	4.195008
1051.190000	435.500000	2008.000000	4.195164
1051.690000	435.000000	1968.000000	4.195320
1052.190000	434.500000	1970.000000	4.195476
1052.690000	434.000000	2034.000000	4.195632
1053.190000	433.500000	1939.000000	4.195788
1053.690000	433.000000	1864.000000	4.195944
1054.190000	432.500000	1877.000000	4.196100
1054.690000	432.000000	1945.000000	4.196256
1055.190000	431.500000	1975.000000	4.196411
1055.690000	431.000000	1991.000000	4.196567
1056.190000	430.500000	1878.000000	4.196723
1056.690000	430.000000	1892.000000	4.196879
1057.190000	429.500000	1884.000000	4.197035
1057.690000	429.000000	1930.000000	4.197191
1058.190000	428.500000	1997.000000	4.197347
1058.690000	428.000000	1941.000000	4.197503
1059.190000	427.500000	1957.000000	4.197658
1059.690000	427.000000	1871.000000	4.197814
1060.190000	426.500000	1951.000000	4.197970
1060.690000	426.000000	1946.000000	4.198126
1061.190000	425.500000	1909.000000	4.198282
1061.690000	425.000000	1918.000000	4.198438
1062.190000	424.500000	1905.000000	4.198594
1062.690000	424.000000	1927.000000	4.198750
1063.190000	423.500000	1912.000000	4.198906
1063.690000	423.000000	1862.000000	4.199061
1064.190000	422.500000	1875.000000	4.199217
1064.690000	422.000000	1853.000000	4.199373
1065.190000	421.500000	1887.000000	4.199529
1065.690000	421.000000	1843.000000	4.199685
1066.190000	420.500000	1962.000000	4.199841
1066.690000	420.000000	1942.000000	4.199997
1067.190000	419.500000	1890.000000	4.200153
1067.690000	419.000000	1883.000000	4.200309
1068.190000	418.500000	1897.000000	4.200464
1068.690000	418.000000	1880.000000	4.200620
1069.190000	417.500000	1839.000000	4.200776
1069.690000	417.000000	1901.000000	4.200932
1070.190000	416.500000	1858.000000	4.201088
1070.690000	416.000000	1936.000000	4.201244
1071.190000	415.500000	1905.000000	4.201400
1071.690000	415.000000	1862.000000	4.201556
1072.190000	414.500000	1831.000000	4.201711
1072.690000	414.000000	1872.000000	4.201867
1073.190000	413.500000	1861.000000	4.202023
1073.690000	413.000000	1881.000000	4.202179
1074.190000	412.500000	1971.000000	4.202335
1074.690000	412.000000	1892.000000	4.202491
1075.190000	411.500000	1935.000000	4.202647
1075.690000	411.000000	1897.000000	4.202803
1076.190000	410.500000	1928.000000	4.202959
1076.690000	410.000000	1939.000000	4.203114
1077.190000	409.500000	1950.000000	4.203270
1077.690000	409.000000	1956.000000	4.203426
1078.190000	408.500000	1995.000000	4.203582
1078.690000	408.000000	1918.000000	4.203738
1079.190000	407.500000	1938.000000	4.203894
1079.690000	407.000000	1940.000000	4.204050
1080.190000	406.500000	1948.000000	4.204206
1080.690000	406.000000	1982.000000	4.204362
1081.190000	405.500000	1944.000000	4.204517
1081.690000	405.000000	1910.000000	4.204673
1082.190000	404.500000	1938.000000	4.204829
1082.690000	404.000000	1946.000000	4.204985
1083.190000	403.500000	1916.000000	4.205141
1083.690000	403.000000	1936.000000	4.205297
1084.190000	402.500000	1928.000000	4.205453
1084.690000	402.000000	1900.000000	4.205609
1085.190000	401.500000	1973.000000	4.205764
1085.690000	401.000000	1983.000000	4.205920
1086.190000	400.500000	1937.000000	4.206076
1086.690000	400.000000	1913.000000	4.206232
1087.190000	399.500000	2036.000000	4.206388
1087.690000	399.000000	1984.000000	4.206544
1088.190000	398.500000	1965.000000	4.206700
1088.690000	398.000000	2008.000000	4.206856
1089.190000	397.500000	1948.000000	4.207012
1089.690000	397.000000	1984.000000	4.207167
1090.190000	396.500000	1990.000000	4.207323
1090.690000	396.000000	2011.000000	4.207479
1091.190000	395.500000	1875.000000	4.207635
1091.690000	395.000000	1911.000000	4.207791
1092.190000	394.500000	1906.000000	4.207947
1092.690000	394.000000	1985.000000	4.208103
1093.190000	393.500000	1964.000000	4.208259
1093.690000	393.000000	1991.000000	4.208414
1094.190000	392.500000	1958.000000	4.208570
1094.690000	392.000000	2002.000000	4.208726
1095.190000	391.500000	1997.000000	4.208882
1095.690000	391.000000	2004.000000	4.209038
1096.190000	390.500000	1959.000000	4.209194
1096.690000	390.000000	1999.000000	4.209350
1097.190000	389.500000	1939.000000	4.209506
1097.690000	389.000000	1991.000000	4.209662
1098.190000	388.500000	2055.000000	4.209817
1098.690000	388.000000	2003.000000	4.209973
1099.190000	387.500000	2044.000000	4.210129
1099.690000	387.000000	2071.000000	4.210285
1100.190000	386.500000	1994.000000	4.210441
1100.690000	386.000000	1988.000000	4.210597
1101.190000	385.500000	1997.000000	4.210753
1101.690000	385.000000	2003.000000	4.210909
1102.190000	384.500000	1976.000000	4.211065
1102.690000	384.000000	1981.000000	4.211220
1103.190000	383.500000	2007.000000	4.211376
1103.690000	383.000000	1948.000000	4.211532
1104.190000	382.500000	2040.000000	4.211688
1104.690000	382.000000	1986.000000	4.211844
1105.190000	381.500000	2050.000000	4.212000
1105.690000	381.000000	2076.000000	4.212156
1106.190000	380.500000	2024.000000	4.212312
1106.690000	380.000000	2091.000000	4.212467
1107.190000	379.500000	2059.000000	4.212623
1107.690000	379.000000	2017.000000	4.212779
1108.190000	378.500000	2067.000000	4.212935
1108.690000	378.000000	2068.000000	4.213091
1109.190000	377.500000	2034.000000	4.213247
1109.690000	377.000000	2061.000000	4.213403
1110.190000	376.500000	2036.000000	4.213559
1110.690000	376.000000	2058.000000	4.213715
1111.190000	375.500000	2101.000000	4.213870
1111.690000	375.000000	2043.000000	4.214026
1112.190000	374.500000	2008.000000	4.214182
1112.690000	374.000000	2010.000000	4.214338
1113.190000	373.500000	2026.000000	4.214494
1113.690000	373.000000	2030.000000	4.214650
1114.190000	372.500000	1968.000000	4.214806
1114.690000	372.000000	2015.000000	4.214962
1115.190000	371.500000	2038.000000	4.215118
1115.690000	371.000000	2094.000000	4.215273
1116.190000	370.500000	2071.000000	4.215429
1116.690000	370.000000	2058.000000	4.215585
1117.190000	369.500000	2070.000000	4.215741
1117.690000	369.000000	2057.000000	4.215897
1118.190000	368.500000	2013.000000	4.216053
1118.690000	368.000000	2090.000000	4.216209
1119.190000	367.500000	2111.000000	4.216365
1119.690000	367.000000	2094.000000	4.216520
1120.190000	366.500000	2108.000000	4.216676
1120.690000	366.000000	2168.000000	4.216832
1121.190000	365.500000	2165.000000	4.216988
1121.690000	365.000000	2035.000000	4.217144
1122.190000	364.500000	2101.000000	4.217300
1122.690000	364.000000	2065.000000	4.217456
1123.190000	363.500000	2087.000000	4.217612
1123.690000	363.000000	2075.000000	4.217768
1124.190000	362.500000	2168.000000	4.217923
1124.690000	362.000000	2116.000000	4.218079
1125.190000	361.500000	2152.000000	4.218235
1125.690000	361.000000	2119.000000	4.218391
1126.190000	360.500000	2063.000000	4.218547
1126.690000	360.000000	2076.000000	4.218703
1127.190000	359.500000	2079.000000	4.218859
1127.690000	359.000000	2083.000000	4.219015
1128.190000	358.500000	2155.000000	4.219170
1128.690000	358.000000	2091.000000	4.219326
1129.190000	357.500000	2069.000000	4.219482
1129.690000	357.000000	2113.000000	4.219638
1130.190000	356.500000	2142.000000	4.219794
1130.690000	356.000000	2181.000000	4.219950
1131.190000	355.500000	2121.000000	4.220106
1131.690000	355.000000	2098.000000	4.220262
1132.190000	354.500000	2162.000000	4.220418
1132.690000	354.000000	2191.000000	4.220573
1133.190000	353.500000	2188.000000	4.220729
1133.690000	353.000000	2149.000000	4.220885
1134.190000	352.500000	2199.000000	4.221041
1134.690000	352.000000	2148.000000	4.221197
1135.190000	351.500000	2147.000000	4.221353
1135.690000	351.000000	2225.000000	4.221509
1136.190000	350.500000	2152.000000	4.221665
1136.690000	350.000000	2169.000000	4.221821
1137.190000	349.500000	2157.000000	4.221976
1137.690000	349.000000	2106.000000	4.222132
1138.190000	348.500000	2199.000000	4.222288
1138.690000	348.000000	2180.000000	4.222444
1139.190000	347.500000	2209.000000	4.222600
1139.690000	347.000000	2155.000000	4.222756
1140.190000	346.500000	2167.000000	4.222912
1140.690000	346.000000	2145.000000	4.223068
1141.190000	345.500000	2137.000000	4.223223
1141.690000	345.000000	2221.000000	4.223379
1142.190000	344.500000	2250.000000	4.223535
1142.690000	344.000000	2154.000000	4.223691
1143.190000	343.500000	2181.000000	4.223847
1143.690000	343.000000	2196.000000	4.224003
1144.190000	342.500000	2125.000000	4.224159
1144.690000	342.000000	2170.000000	4.224315
1145.190000	341.500000	2235.000000	4.224471
1145.690000	341.000000	2184.000000	4.224626
1146.190000	340.500000	2185.000000	4.224782
1146.690000	340.000000	2189.000000	4.224938
1147.190000	339.500000	2198.000000	4.225094
1147.690000	339.000000	2229.000000	4.225250
1148.190000	338.500000	2239.000000	4.225406
1148.690000	338.000000	2300.000000	4.225562
1149.190000	337.500000	2233.000000	4.225718
1149.690000	337.000000	2222.000000	4.225874
1150.190000	336.500000	2244.000000	4.226029
1150.690000	336.000000	2274.000000	4.226185
1151.190000	335.500000	2258.000000	4.226341
1151.690000	335.000000	2224.000000	4.226497
1152.190000	334.500000	2230.000000	4.226653
1152.690000	334.000000	2207.000000	4.226809
1153.190000	333.500000	2239.000000	4.226965
1153.690000	333.000000	2225.000000	4.227121
1154.190000	332.500000	2214.000000	4.227276
1154.690000	332.000000	2248.000000	4.227432
1155.190000	331.500000	2205.000000	4.227588
1155.690000	331.000000	2293.000000	4.227744
1156.190000	330.500000	2234.000000	4.227900
1156.690000	330.000000	2265.000000	4.228056
1157.190000	329.500000	2241.000000	4.228212
1157.690000	329.000000	2285.000000	4.228368
1158.190000	328.500000	2261.000000	4.228524
1158.690000	328.000000	2260.000000	4.228679
1159.190000	327.500000	2259.000000	4.228835
1159.690000	327.000000	2294.000000	4.228991
1160.190000	326.500000	2329.000000	4.229147
1160.690000	326.000000	2258.000000	4.229303
1161.190000	325.500000	2215.000000	4.229459
1161.690000	325.000000	2306.000000	4.229615
1162.190000	324.500000	2272.000000	4.229771
1162.690000	324.000000	2282.000000	4.229926
1163.190000	323.500000	2277.000000	4.230082
1163.690000	323.000000	2326.000000	4.230238
1164.190000	322.500000	2269.000000	4.230394
1164.690000	322.000000	2312.000000	4.230550
1165.190000	321.500000	2310.000000	4.230706
1165.690000	321.000000	2353.000000	4.230862
1166.190000	320.500000	2359.000000	4.231018
1166.690000	320.000000	2301.000000	4.231174
1167.190000	319.500000	2406.000000	4.231329
1167.690000	319.000000	2317.000000	4.231485
1168.190000	318.500000	2331.000000	4.231641
1168.690000	318.000000	2390.000000	4.231797
1169.190000	317.500000	2430.000000	4.231953
1169.690000	317.000000	2339.000000	4.232109
1170.190000	316.500000	2346.000000	4.232265
1170.690000	316.000000	2373.000000	4.232421
1171.190000	315.500000	2325.000000	4.232577
1171.690000	315.000000	2372.000000	4.232732
1172.190000	314.500000	2354.000000	4.232888
1172.690000	314.000000	2270.000000	4.233044
1173.190000	313.500000	2325.000000	4.233200
1173.690000	313.000000	2329.000000	4.233356
1174.190000	312.500000	2431.000000	4.233512
1174.690000	312.000000	2387.000000	4.233668
1175.190000	311.500000	2338.000000	4.233824
1175.690000	311.000000	2403.000000	4.233979
1176.190000	310.500000	2320.000000	4.234135
1176.690000	310.000000	2363.000000	4.234291
1177.190000	309.500000	2425.000000	4.234447
1177.690000	309.000000	2357.000000	4.234603
1178.190000	308.500000	2416.000000	4.234759
1178.690000	308.000000	2372.000000	4.234915
1179.190000	307.500000	2377.000000	4.235071
1179.690000	307.000000	2355.000000	4.235227
1180.190000	306.500000	2399.000000	4.235382
1180.690000	306.000000	2456.000000	4.235538
1181.190000	305.500000	2475.000000	4.235694
1181.690000	305.000000	2349.000000	4.235850
1182.190000	304.500000	2417.000000	4.236006
1182.690000	304.000000	2465.000000	4.236162
1183.190000	303.500000	2355.000000	4.236318
1183.690000	303.000000	2360.000000	4.236474
1184.190000	302.500000	2415.000000	4.236630
1184.690000	302.000000	2441.000000	4.236785
1185.190000	301.500000	2378.000000	4.236941
1185.690000	301.000000	2425.000000	4.237097
1186.190000	300.500000	2492.000000	4.237253
1186.690000	300.000000	2394.000000	4.237409
1187.190000	299.500000	2391.000000	4.237565
1187.690000	299.000000	2458.000000	4.237721
1188.190000	298.500000	2485.000000	4.237877
1188.690000	298.000000	2386.000000	4.238032
1189.190000	297.500000	2336.000000	4.238188
1189.690000	297.000000	2389.000000	4.238344
1190.190000	296.500000	2409.000000	4.238500
1190.690000	296.000000	2422.000000	4.238656
1191.190000	295.500000	2455.000000	4.238812
1191.690000	295.000000	2482.000000	4.238968
1192.190000	294.500000	2485.000000	4.239124
1192.690000	294.000000	2400.000000	4.239280
1193.190000	293.500000	2440.000000	4.239435
1193.690000	293.000000	2442.000000	4.239591
1194.190000	292.500000	2399.000000	4.239747
1194.690000	292.000000	2408.000000	4.239903
1195.190000	291.500000	2440.000000	4.240059
1195.690000	291.000000	2567.000000	4.240215
1196.190000	290.500000	2636.000000	4.240371
1196.690000	290.000000	2677.000000	4.240527
1197.190000	289.500000	2809.000000	4.240682
1197.690000	289.000000	2743.000000	4.240838
1198.190000	288.500000	2728.000000	4.240994
1198.690000	288.000000	2643.000000	4.241150
1199.190000	287.500000	2811.000000	4.241306
1199.690000	287.000000	2963.000000	4.241462
1200.190000	286.500000	3251.000000	4.241618
1200.690000	286.000000	3587.000000	4.241774
1201.190000	285.500000	3893.000000	4.241930
1201.690000	285.000000	3755.000000	4.242085
1202.190000	284.500000	3300.000000	4.242241
1202.690000	284.000000	2881.000000	4.242397
1203.190000	283.500000	2514.000000	4.242553
1203.690000	283.000000	2441.000000	4.242709
1204.190000	282.500000	2446.000000	4.242865
1204.690000	282.000000	2457.000000	4.243021
1205.190000	281.500000	2433.000000	4.243177
1205.690000	281.000000	2430.000000	4.243333
1206.190000	280.500000	2374.000000	4.243488
1206.690000	280.000000	2419.000000	4.243644
1207.190000	279.500000	2519.000000	4.243800
1207.690000	279.000000	2474.000000	4.243956
1208.190000	278.500000	2431.000000	4.244112
1208.690000	278.000000	2452.000000	4.244268
1209.190000	277.500000	2515.000000	4.244424
1209.690000	277.000000	2421.000000	4.244580
1210.190000	276.500000	2412.000000	4.244735
1210.690000	276.000000	2507.000000	4.244891
1211.190000	275.500000	2433.000000	4.245047
1211.690000	275.000000	2456.000000	4.245203
1212.190000	274.500000	2517.000000	4.245359
1212.690000	274.000000	2460.000000	4.245515
1213.190000	273.500000	2487.000000	4.245671
1213.690000	273.000000	2457.000000	4.245827
1214.190000	272.500000	2455.000000	4.245983
1214.690000	272.000000	2535.000000	4.246138
1215.190000	271.500000	2578.000000	4.246294
1215.690000	271.000000	2647.000000	4.246450
1216.190000	270.500000	2592.000000	4.246606
1216.690000	270.000000	2540.000000	4.246762
1217.190000	269.500000	2658.000000	4.246918
1217.690000	269.000000	2527.000000	4.247074
1218.190000	268.500000	2544.000000	4.247230
1218.690000	268.000000	2532.000000	4.247386
1219.190000	267.500000	2527.000000	4.247541
1219.690000	267.000000	2581.000000	4.247697
1220.190000	266.500000	2578.000000	4.247853
1220.690000	266.000000	2507.000000	4.248009
1221.190000	265.500000	2488.000000	4.248165
1221.690000	265.000000	2427.000000	4.248321
1222.190000	264.500000	2515.000000	4.248477
1222.690000	264.000000	2522.000000	4.248633
1223.190000	263.500000	2481.000000	4.248788
1223.690000	263.000000	2494.000000	4.248944
1224.190000	262.500000	2507.000000	4.249100
1224.690000	262.000000	2507.000000	4.249256
1225.190000	261.500000	2486.000000	4.249412
1225.690000	261.000000	2506.000000	4.249568
1226.190000	260.500000	2569.000000	4.249724
1226.690000	260.000000	2593.000000	4.249880
1227.190000	259.500000	2549.000000	4.250036
1227.690000	259.000000	2535.000000	4.250191
1228.190000	258.500000	2518.000000	4.250347
1228.690000	258.000000	2573.000000	4.250503
1229.190000	257.500000	2548.000000	4.250659
1229.690000	257.000000	2538.000000	4.250815
1230.190000	256.500000	2547.000000	4.250971
1230.690000	256.000000	2669.000000	4.251127
1231.190000	255.500000	2561.000000	4.251283
1231.690000	255.000000	2459.000000	4.251439
1232.190000	254.500000	2526.000000	4.251594
1232.690000	254.000000	2652.000000	4.251750
1233.190000	253.500000	2650.000000	4.251906
1233.690000	253.000000	2648.000000	4.252062
1234.190000	252.500000	2538.000000	4.252218
1234.690000	252.000000	2590.000000	4.252374
1235.190000	251.500000	2568.000000	4.252530
1235.690000	251.000000	2572.000000	4.252686
1236.190000	250.500000	2640.000000	4.252819
1236.690000	250.000000	2551.000000	4.252931
1237.190000	249.500000	2704.000000	4.253042
1237.690000	249.000000	2597.000000	4.253154
1238.190000	248.500000	2589.000000	4.253265
1238.690000	248.000000	2559.000000	4.253376
1239.190000	247.500000	2607.000000	4.253488
1239.690000	247.000000	2579.000000	4.253599
1240.190000	246.500000	2611.000000	4.253711
1240.690000	246.000000	2686.000000	4.253822
1241.190000	245.500000	2668.000000	4.253934
1241.690000	245.000000	2628.000000	4.254045
1242.190000	244.500000	2595.000000	4.254156
1242.690000	244.000000	2670.000000	4.254268
1243.190000	243.500000	2591.000000	4.254379
1243.690000	243.000000	2708.000000	4.254491
1244.190000	242.500000	2723.000000	4.254602
1244.690000	242.000000	2687.000000	4.254714
1245.190000	241.500000	2611.000000	4.254825
1245.690000	241.000000	2653.000000	4.254936
1246.190000	240.500000	2660.000000	4.255048
1246.690000	240.000000	2607.000000	4.255159
1247.190000	239.500000	2673.000000	4.255271
1247.690000	239.000000	2699.000000	4.255382
1248.190000	238.500000	2765.000000	4.255494
1248.690000	238.000000	2652.000000	4.255605
1249.190000	237.500000	2691.000000	4.255716
1249.690000	237.000000	2645.000000	4.255828
1250.190000	236.500000	2675.000000	4.255939
1250.690000	236.000000	2725.000000	4.256051
1251.190000	235.500000	2759.000000	4.256162
1251.690000	235.000000	2722.000000	4.256274
1252.190000	234.500000	2739.000000	4.256385
1252.690000	234.000000	2629.000000	4.256496
1253.190000	233.500000	2654.000000	4.256608
1253.690000	233.000000	2698.000000	4.256719
1254.190000	232.500000	2699.000000	4.256831
1254.690000	232.000000	2649.000000	4.256942
1255.190000	231.500000	2666.000000	4.257054
1255.690000	231.000000	2766.000000	4.257165
1256.190000	230.500000	2721.000000	4.257276
1256.690000	230.000000	2684.000000	4.257388
1257.190000	229.500000	2765.000000	4.257499
1257.690000	229.000000	2737.000000	4.257611
1258.190000	228.500000	2747.000000	4.257722
1258.690000	228.000000	2772.000000	4.257834
1259.190000	227.500000	2746.000000	4.257945
1259.690000	227.000000	2746.000000	4.258056
1260.190000	226.500000	2718.000000	4.258168
1260.690000	226.000000	2712.000000	4.258279
1261.190000	225.500000	2732.000000	4.258391
1261.690000	225.000000	2764.000000	4.258502
1262.190000	224.500000	2832.000000	4.258614
1262.690000	224.000000	2733.000000	4.258725
1263.190000	223.500000	2757.000000	4.258836
1263.690000	223.000000	2724.000000	4.258948
1264.190000	222.500000	2783.000000	4.259059
1264.690000	222.000000	2786.000000	4.259171
1265.190000	221.500000	2817.000000	4.259282
1265.690000	221.000000	2765.000000	4.259394
1266.190000	220.500000	2785.000000	4.259505
1266.690000	220.000000	2817.000000	4.259616
1267.190000	219.500000	2779.000000	4.259728
1267.690000	219.000000	2800.000000	4.259839
1268.190000	218.500000	2785.000000	4.259951
1268.690000	218.000000	2756.000000	4.260062
1269.190000	217.500000	2821.000000	4.260174
1269.690000	217.000000	2763.000000	4.260285
1270.190000	216.500000	2825.000000	4.260396
1270.690000	216.000000	2796.000000	4.260508
1271.190000	215.500000	2820.000000	4.260619
1271.690000	215.000000	2856.000000	4.260731
1272.190000	214.500000	2841.000000	4.260842
1272.690000	214.000000	2767.000000	4.260954
1273.190000	213.500000	2732.000000	4.261065
1273.690000	213.000000	2766.000000	4.261177
1274.190000	212.500000	2897.000000	4.261288
1274.690000	212.000000	2793.000000	4.261399
1275.190000	211.500000	2883.000000	4.261511
1275.690000	211.000000	2802.000000	4.261622
1276.190000	210.500000	2811.000000	4.261734
1276.690000	210.000000	2895.000000	4.261845
1277.190000	209.500000	2873.000000	4.261957
1277.690000	209.000000	2820.000000	4.262068
1278.190000	208.500000	2810.000000	4.262179
1278.690000	208.000000	2916.000000	4.262291
1279.190000	207.500000	2912.000000	4.262402
1279.690000	207.000000	2890.000000	4.262514
1280.190000	206.500000	2863.000000	4.262625
1280.690000	206.000000	2834.000000	4.262737
1281.190000	205.500000	2845.000000	4.262848
1281.690000	205.000000	2863.000000	4.262959
1282.190000	204.500000	2860.000000	4.263071
1282.690000	204.000000	2878.000000	4.263182
1283.190000	203.500000	2923.000000	4.263294
1283.690000	203.000000	2839.000000	4.263405
1284.190000	202.500000	2868.000000	4.263517
1284.690000	202.000000	2871.000000	4.263628
1285.190000	201.500000	2993.000000	4.263739
1285.690000	201.000000	2936.000000	4.263851
1286.190000	200.500000	3115.000000	4.263962
1286.690000	200.000000	3071.000000	4.264074
1287.190000	199.500000	3194.000000	4.264185
1287.690000	199.000000	3069.000000	4.264297
1288.190000	198.500000	3058.000000	4.264408
1288.690000	198.000000	3053.000000	4.264519
1289.190000	197.500000	2881.000000	4.264631
1289.690000	197.000000	2926.000000	4.264742
1290.190000	196.500000	2968.000000	4.264854
1290.690000	196.000000	2915.000000	4.264965
1291.190000	195.500000	2905.000000	4.265077
1291.690000	195.000000	2960.000000	4.265188
1292.190000	194.500000	2948.000000	4.265299
1292.690000	194.000000	2942.000000	4.265411
1293.190000	193.500000	3046.000000	4.265522
1293.690000	193.000000	2945.000000	4.265634
1294.190000	192.500000	3060.000000	4.265745
1294.690000	192.000000	3013.000000	4.265857
1295.190000	191.500000	3050.000000	4.265968
1295.690000	191.000000	3062.000000	4.266079
1296.190000	190.500000	2952.000000	4.266191
1296.690000	190.000000	3017.000000	4.266302
1297.190000	189.500000	3039.000000	4.266414
1297.690000	189.000000	3011.000000	4.266525
1298.190000	188.500000	3001.000000	4.266637
1298.690000	188.000000	2914.000000	4.266748
1299.190000	187.500000	2946.000000	4.266859
1299.690000	187.000000	2993.000000	4.266971
1300.190000	186.500000	2940.000000	4.267082
1300.690000	186.000000	2956.000000	4.267194
1301.190000	185.500000	3010.000000	4.267305
1301.690000	185.000000	3033.000000	4.267417
1302.190000	184.500000	2974.000000	4.267528
1302.690000	184.000000	3002.000000	4.267639
1303.190000	183.500000	3036.000000	4.267751
1303.690000	183.000000	3113.000000	4.267862
1304.190000	182.500000	3091.000000	4.267974
1304.690000	182.000000	3079.000000	4.268085
1305.190000	181.500000	3019.000000	4.268197
1305.690000	181.000000	3059.000000	4.268308
1306.190000	180.500000	3037.000000	4.268419
1306.690000	180.000000	3022.000000	4.268531
1307.190000	179.500000	2953.000000	4.268642
1307.690000	179.000000	3041.000000	4.268754
1308.190000	178.500000	3034.000000	4.268865
1308.690000	178.000000	2922.000000	4.268977
1309.190000	177.500000	3078.000000	4.269088
1309.690000	177.000000	3156.000000	4.269199
1310.190000	176.500000	3090.000000	4.269311
1310.690000	176.000000	3107.000000	4.269422
1311.190000	175.500000	3130.000000	4.269534
1311.690000	175.000000	2904.000000	4.269645
1312.190000	174.500000	2960.000000	4.269757
1312.690000	174.000000	3098.000000	4.269868
1313.190000	173.500000	3090.000000	4.269980
1313.690000	173.000000	3114.000000	4.270091
1314.190000	172.500000	3077.000000	4.270202
1314.690000	172.000000	3159.000000	4.270314
1315.190000	171.500000	3093.000000	4.270425
1315.690000	171.000000	3016.000000	4.270537
1316.190000	170.500000	3154.000000	4.270648
1316.690000	170.000000	3061.000000	4.270760
1317.190000	169.500000	3135.000000	4.270871
1317.690000	169.000000	3204.000000	4.270982
1318.190000	168.500000	3060.000000	4.271094
1318.690000	168.000000	3136.000000	4.271205
1319.190000	167.500000	3169.000000	4.271317
1319.690000	167.000000	3117.000000	4.271428
1320.190000	166.500000	3150.000000	4.271540
1320.690000	166.000000	3124.000000	4.271651
1321.190000	165.500000	3156.000000	4.271762
1321.690000	165.000000	3202.000000	4.271874
1322.190000	164.500000	3127.000000	4.271985
1322.690000	164.000000	3140.000000	4.272097
1323.190000	163.500000	3230.000000	4.272208
1323.690000	163.000000	3158.000000	4.272320
1324.190000	162.500000	3146.000000	4.272431
1324.690000	162.000000	3149.000000	4.272542
1325.190000	161.500000	3197.000000	4.272654
1325.690000	161.000000	3197.000000	4.272765
1326.190000	160.500000	3236.000000	4.272877
1326.690000	160.000000	3186.000000	4.272988
1327.190000	159.500000	3204.000000	4.273100
1327.690000	159.000000	3245.000000	4.273211
1328.190000	158.500000	3188.000000	4.273322
1328.690000	158.000000	3310.000000	4.273434
1329.190000	157.500000	3228.000000	4.273545
1329.690000	157.000000	3250.000000	4.272576
1330.190000	156.500000	3180.000000	4.270436
1330.690000	156.000000	3190.000000	4.268296
1331.190000	155.500000	3198.000000	4.266156
1331.690000	155.000000	3159.000000	4.264015
1332.190000	154.500000	3200.000000	4.261875
1332.690000	154.000000	3208.000000	4.259735
1333.190000	153.500000	3279.000000	4.257595
1333.690000	153.000000	3261.000000	4.255455
1334.190000	152.500000	3215.000000	4.253315
1334.690000	152.000000	3293.000000	4.251175
1335.190000	151.500000	3348.000000	4.249035
1335.690000	151.000000	3330.000000	4.246894
1336.190000	150.500000	3275.000000	4.244754
1336.690000	150.000000	3252.000000	4.242614
1337.190000	149.500000	3232.000000	4.240474
1337.690000	149.000000	3335.000000	4.238334
1338.190000	148.500000	3331.000000	4.236194
1338.690000	148.000000	3392.000000	4.234054
1339.190000	147.500000	3364.000000	4.231914
1339.690000	147.000000	3397.000000	4.229773
1340.190000	146.500000	3284.000000	4.227633
1340.690000	146.000000	3364.000000	4.225493
1341.190000	145.500000	3307.000000	4.223353
1341.690000	145.000000	3383.000000	4.221213
1342.190000	144.500000	3395.000000	4.219073
1342.690000	144.000000	3433.000000	4.216933
1343.190000	143.500000	3419.000000	4.214793
1343.690000	143.000000	3438.000000	4.212652
1344.190000	142.500000	3389.000000	4.210512
1344.690000	142.000000	3477.000000	4.208372
1345.190000	141.500000	3476.000000	4.206232
1345.690000	141.000000	3440.000000	4.204092
1346.190000	140.500000	3516.000000	4.201952
1346.690000	140.000000	3512.000000	4.199812
1347.190000	139.500000	3519.000000	4.197672
1347.690000	139.000000	3497.000000	4.195531
1348.190000	138.500000	3480.000000	4.193391
1348.690000	138.000000	3445.000000	4.191251
1349.190000	137.500000	3385.000000	4.189111
1349.690000	137.000000	3396.000000	4.186971
1350.190000	136.500000	3424.000000	4.184831
1350.690000	136.000000	3433.000000	4.182691
1351.190000	135.500000	3394.000000	4.180551
1351.690000	135.000000	3351.000000	4.178410
1352.190000	134.500000	3425.000000	4.176270
1352.690000	134.000000	3412.000000	4.174130
1353.190000	133.500000	3505.000000	4.171990
1353.690000	133.000000	3481.000000	4.169850
1354.190000	132.500000	3455.000000	4.167710
1354.690000	132.000000	3429.000000	4.165570
1355.190000	131.500000	3339.000000	4.163430
1355.690000	131.000000	3389.000000	4.161289
1356.190000	130.500000	3496.000000	4.159149
1356.690000	130.000000	3545.000000	4.157009
1357.190000	129.500000	3520.000000	4.154869
1357.690000	129.000000	3509.000000	4.152729
1358.190000	128.500000	3580.000000	4.150589
1358.690000	128.000000	3792.000000	4.148449
1359.190000	127.500000	3765.000000	4.146309
1359.690000	127.000000	3883.000000	4.144168
1360.190000	126.500000	4036.000000	4.142028
1360.690000	126.000000	4185.000000	4.139888
1361.190000	125.500000	4475.000000	4.137748
1361.690000	125.000000	4613.000000	4.135608
1362.190000	124.500000	4629.000000	4.133468
1362.690000	124.000000	4756.000000	4.131328
1363.190000	123.500000	4566.000000	4.129188
1363.690000	123.000000	4464.000000	4.127047
1364.190000	122.500000	4267.000000	4.124907
1364.690000	122.000000	4070.000000	4.122767
1365.190000	121.500000	3970.000000	4.120627
1365.690000	121.000000	3812.000000	4.118487
1366.190000	120.500000	3700.000000	4.116347
1366.690000	120.000000	3589.000000	4.114207
1367.190000	119.500000	3443.000000	4.112067
1367.690000	119.000000	3420.000000	4.109926
1368.190000	118.500000	3255.000000	4.107786
1368.690000	118.000000	3337.000000	4.105646
1369.190000	117.500000	3247.000000	4.103506
1369.690000	117.000000	3337.000000	4.101366
1370.190000	116.500000	3311.000000	4.099226
1370.690000	116.000000	3247.000000	4.097086
1371.190000	115.500000	3219.000000	4.094945
1371.690000	115.000000	3278.000000	4.092805
1372.190000	114.500000	3279.000000	4.090665
1372.690000	114.000000	3290.000000	4.088525
1373.190000	113.500000	3340.000000	4.086385
1373.690000	113.000000	3367.000000	4.084245
1374.190000	112.500000	3351.000000	4.082105
1374.690000	112.000000	3291.000000	4.079965
1375.190000	111.500000	3343.000000	4.077824
1375.690000	111.000000	3400.000000	4.075684
1376.190000	110.500000	3421.000000	4.073544
1376.690000	110.000000	3439.000000	4.071404
1377.190000	109.500000	3308.000000	4.069264
1377.690000	109.000000	3389.000000	4.067124
1378.190000	108.500000	3356.000000	4.064984
1378.690000	108.000000	3402.000000	4.062844
1379.190000	107.500000	3394.000000	4.060703
1379.690000	107.000000	3436.000000	4.058563
1380.190000	106.500000	3456.000000	4.056423
1380.690000	106.000000	3505.000000	4.054283
1381.190000	105.500000	3418.000000	4.052143
1381.690000	105.000000	3451.000000	4.050003
1382.190000	104.500000	3474.000000	4.047863
1382.690000	104.000000	3488.000000	4.045723
1383.190000	103.500000	3545.000000	4.043582
1383.690000	103.000000	3525.000000	4.041442
1384.190000	102.500000	3540.000000	4.039302
1384.690000	102.000000	3633.000000	4.037162
1385.190000	101.500000	3650.000000	4.035022
1385.690000	101.000000	3666.000000	4.032882
1386.190000	100.500000	3598.000000	4.030742
1386.690000	100.000000	3712.000000	4.028602
1387.190000	99.500000	3685.000000	4.026461
1387.690000	99.000000	3589.000000	4.024321
1388.190000	98.500000	3611.000000	4.022181
1388.690000	98.000000	3612.000000	4.020041
1389.190000	97.500000	3658.000000	4.017901
1389.690000	97.000000	3703.000000	4.015761
1390.190000	96.500000	3641.000000	4.013621
1390.690000	96.000000	3742.000000	4.011481
1391.190000	95.500000	3719.000000	4.009340
1391.690000	95.000000	3766.000000	4.007200
1392.190000	94.500000	3745.000000	4.005060
1392.690000	94.000000	3812.000000	4.002920
1393.190000	93.500000	3897.000000	4.000780
1393.690000	93.000000	3878.000000	3.998640
1394.190000	92.500000	3894.000000	3.996500
1394.690000	92.000000	3923.000000	3.994360
1395.190000	91.500000	3974.000000	3.992219
1395.690000	91.000000	3968.000000	3.990079
1396.190000	90.500000	3992.000000	3.987939
1396.690000	90.000000	4186.000000	3.985799
1397.190000	89.500000	4238.000000	3.983659
1397.690000	89.000000	4208.000000	3.981519
1398.190000	88.500000	4164.000000	3.979379
1398.690000	88.000000	4210.000000	3.977239
1399.190000	87.500000	4320.000000	3.975098
1399.690000	87.000000	4477.000000	3.972958
1400.190000	86.500000	4458.000000	3.970818
1400.690000	86.000000	4437.000000	3.968678
1401.190000	85.500000	4460.000000	3.966538
1401.690000	85.000000	4431.000000	3.964398
1402.190000	84.500000	4357.000000	3.962258
1402.690000	84.000000	4504.000000	3.960118
1403.190000	83.500000	4550.000000	3.957977
1403.690000	83.000000	4574.000000	3.955837
1404.190000	82.500000	4534.000000	3.953697
1404.690000	82.000000	4678.000000	3.951557
1405.190000	81.500000	4734.000000	3.949417
1405.690000	81.000000	4836.000000	3.947277
1406.190000	80.500000	4798.000000	3.945137
1406.690000	80.000000	4737.000000	3.942997
1407.190000	79.500000	4781.000000	3.940856
1407.690000	79.000000	4782.000000	3.938716
1408.190000	78.500000	4641.000000	3.936576
1408.690000	78.000000	4568.000000	3.934436
1409.190000	77.500000	4352.000000	3.932296
1409.690000	77.000000	4315.000000	3.930156
1410.190000	76.500000	3996.000000	3.928016
1410.690000	76.000000	3798.000000	3.925876
1411.190000	75.500000	3631.000000	3.923735
1411.690000	75.000000	3534.000000	3.921595
1412.190000	74.500000	3435.000000	3.919455
1412.690000	74.000000	3332.000000	3.917315
1413.190000	73.500000	3236.000000	3.915175
1413.690000	73.000000	3146.000000	3.913035
1414.190000	72.500000	2972.000000	3.910895
1414.690000	72.000000	2857.000000	3.908755
1415.190000	71.500000	2871.000000	3.906614
1415.690000	71.000000	2773.000000	3.904474
1416.190000	70.500000	2563.000000	3.902334
1416.690000	70.000000	2492.000000	3.900194
1417.190000	69.500000	2434.000000	3.898054
1417.690000	69.000000	2321.000000	3.895914
1418.190000	68.500000	2220.000000	3.893774
1418.690000	68.000000	2222.000000	3.891634
1419.190000	67.500000	2257.000000	3.889493
1419.690000	67.000000	2134.000000	3.887353
1420.190000	66.500000	2045.000000	3.885213
1420.690000	66.000000	2050.000000	3.883073
1421.190000	65.500000	2007.000000	3.880933
1421.690000	65.000000	1999.000000	3.878793
1422.190000	64.500000	2038.000000	3.876653
1422.690000	64.000000	1999.000000	3.874513
1423.190000	63.500000	1985.000000	3.872372
1423.690000	63.000000	1922.000000	3.870232
1424.190000	62.500000	1975.000000	3.868092
1424.690000	62.000000	1971.000000	3.865952
1425.190000	61.500000	1895.000000	3.863812
1425.690000	61.000000	1963.000000	3.861672
1426.190000	60.500000	1928.000000	3.859532
1426.690000	60.000000	1901.000000	3.857392
1427.190000	59.500000	1983.000000	3.855251
1427.690000	59.000000	1909.000000	3.853111
1428.190000	58.500000	1958.000000	3.850971
1428.690000	58.000000	1977.000000	3.848831
1429.190000	57.500000	1938.000000	3.846691
1429.690000	57.000000	1946.000000	3.844551
1430.190000	56.500000	1993.000000	3.842411
1430.690000	56.000000	1920.000000	3.840270
1431.190000	55.500000	1940.000000	3.838130
1431.690000	55.000000	2002.000000	3.835990
1432.190000	54.500000	1990.000000	3.833850
1432.690000	54.000000	2016.000000	3.831710
1433.190000	53.500000	1976.000000	3.829570
1433.690000	53.000000	1986.000000	3.827430
1434.190000	52.500000	2027.000000	3.825290
1434.690000	52.000000	1977.000000	3.823149
1435.190000	51.500000	2049.000000	3.821009
1435.690000	51.000000	2024.000000	3.818869
1436.190000	50.500000	1925.000000	3.816729
1436.690000	50.000000	2034.000000	3.814589
1437.190000	49.500000	2125.000000	3.812449
1437.690000	49.000000	2174.000000	3.810309
1438.190000	48.500000	2115.000000	3.808169
1438.690000	48.000000	2124.000000	3.806028
1439.190000	47.500000	2219.000000	3.803888
1439.690000	47.000000	2168.000000	3.801748
1440.190000	46.500000	2378.000000	3.799608
1440.690000	46.000000	2353.000000	3.797468
1441.190000	45.500000	2248.000000	3.795328
1441.690000	45.000000	2292.000000	3.793188
1442.190000	44.500000	2289.000000	3.791048
1442.690000	44.000000	2354.000000	3.788907
1443.190000	43.500000	2307.000000	3.786767
1443.690000	43.000000	2230.000000	3.784627
1444.190000	42.500000	2364.000000	3.782487
1444.690000	42.000000	2334.000000	3.780347
1445.190000	41.500000	2290.000000	3.778207
1445.690000	41.000000	2325.000000	3.776067
1446.190000	40.500000	2385.000000	3.773927
1446.690000	40.000000	2379.000000	3.771786
1447.190000	39.500000	2384.000000	3.769646
1447.690000	39.000000	2368.000000	3.767506
1448.190000	38.500000	2407.000000	3.765366
1448.690000	38.000000	2455.000000	3.763226
1449.190000	37.500000	2502.000000	3.761086
1449.690000	37.000000	2478.000000	3.758946
1450.190000	36.500000	2462.000000	3.756806
1450.690000	36.000000	2400.000000	3.754665
1451.190000	35.500000	2386.000000	3.752525
1451.690000	35.000000	2296.000000	3.750385
1452.190000	34.500000	2349.000000	3.748245
1452.690000	34.000000	2255.000000	3.746105
1453.190000	33.500000	2203.000000	3.743965
1453.690000	33.000000	2201.000000	3.741825
1454.190000	32.500000	2132.000000	3.739685
1454.690000	32.000000	2090.000000	3.737544
1455.190000	31.500000	2134.000000	3.735404
1455.690000	31.000000	2084.000000	3.733264
1456.190000	30.500000	2046.000000	3.731124
1456.690000	30.000000	2153.000000	3.728984
1457.190000	29.500000	2265.000000	3.726844
1457.690000	29.000000	2519.000000	3.724704
1458.190000	28.500000	2821.000000	3.722564
1458.690000	28.000000	3261.000000	3.720423
1459.190000	27.500000	3726.000000	3.718283
1459.690000	27.000000	3911.000000	3.716143
1460.190000	26.500000	3862.000000	3.714003
1460.690000	26.000000	3272.000000	3.711863
1461.190000	25.500000	2509.000000	3.709723
1461.690000	25.000000	2230.000000	3.707583
1462.190000	24.500000	2241.000000	3.705443
1462.690000	24.000000	2288.000000	3.703302
1463.190000	23.500000	2338.000000	3.703046
1463.690000	23.000000	2402.000000	3.703046
1464.190000	22.500000	2462.000000	3.703046
1464.690000	22.000000	2476.000000	3.703046
1465.190000	21.500000	2861.000000	3.703046
1465.690000	21.000000	4066.000000	3.703046
1466.190000	20.500000	6346.000000	3.703046
1466.690000	20.000000	10273.000000	3.703046
1467.190000	19.500000	15752.000000	3.703046
1467.690000	19.000000	20994.000000	3.703046
1468.190000	18.500000	22061.000000	3.703046
1468.690000	18.000000	17980.000000	3.703046
1469.190000	17.500000	10746.000000	3.703046
1469.690000	17.000000	4935.000000	3.703046
1470.190000	16.500000	2274.000000	3.703046
1470.690000	16.000000	1181.000000	3.703046
1471.190000	15.500000	695.000000	3.703046
1471.690000	15.000000	503.000000	3.703046
1472.190000	14.500000	359.000000	3.703046
1472.690000	14.000000	289.000000	3.703046
1473.190000	13.500000	235.000000	3.703046
1473.690000	13.000000	254.000000	3.703046
1474.190000	12.500000	242.000000	3.703046
1474.690000	12.000000	229.000000	3.703046
1475.190000	11.500000	259.000000	3.703046
1475.690000	11.000000	296.000000	3.703046
1476.190000	10.500000	348.000000	3.703046
1476.690000	10.000000	408.000000	3.703046
1477.190000	9.500000	589.000000	3.703046
1477.690000	9.000000	668.000000	3.703046
1478.190000	8.500000	727.000000	3.703046
1478.690000	8.000000	800.000000	3.703046
1479.190000	7.500000	829.000000	3.703046
1479.690000	7.000000	843.000000	3.703046
1480.190000	6.500000	887.000000	3.703046
1480.690000	6.000000	903.000000	3.703046
1481.190000	5.500000	926.000000	3.703046
1481.690000	5.000000	883.000000	3.703046
1482.190000	4.500000	868.000000	3.703046
1482.690000	4.000000	689.000000	3.703046
1483.190000	3.500000	400.000000	3.703046
1483.690000	3.000000	187.000000	3.703046
1484.190000	2.500000	62.000000	3.703046
1484.690000	2.000000	42.000000	3.703046
1485.190000	1.500000	27.000000	3.703046
1485.690000	1.000000	29.000000	3.703046
1486.190000	0.500000	23.000000	3.703046
1486.690000	0.000000	25.000000	3.703046
1487.190000	-0.500000	9.000000	3.703046
1487.690000	-1.000000	3.000000	3.703046
1488.190000	-1.500000	11.000000	3.703046
1488.690000	-2.000000	7.000000	3.703046
1489.190000	-2.500000	6.000000	3.703046
1489.690000	-3.000000	4.000000	3.703046
1490.190000	-3.500000	8.000000	3.703046
1490.690000	-4.000000	8.000000	3.703046
1491.190000	-4.500000	3.000000	3.703046
1491.690000	-5.000000	3.000000	3.703046


